version,status,timestamp,speed_x,speed_y,speed_z,acceleration_x,acceleration_y,acceleration_z,roll_rate,pitch_rate,yaw_rate,speed_x_sigma,speed_y_sigma,speed_z_sigma,acceleration_x_sigma,acceleration_y_sigma,acceleration_z_sigma,roll_rate_sigma,pitch_rate_sigma,yaw_rate_sigma
0,0,1413400,0.009035484865,0,0.001900000032,-0.0210078191,0.01730191894,9.739390373,0.003509948729,-0.001775500015,-0.001708613243,0,0,0,0,0,0,0,0,0
0,0,1423585,0.009126883931,0,0.002099999925,-0.001911670435,0.01358190831,9.814400673,0.0022100145,0.002199207665,0.00160213036,0,0,0,0,0,0,0,0,0
0,0,1433357,0.009243917651,0,0.002099999925,0.02747863531,-0.002834087471,9.80737114,-0.002449968597,-0.005140017718,0.0005336406175,0,0,0,0,0,0,0,0,0
0,0,1443435,0.009914131835,0,0.001799999969,0.08637378365,-0.01118530892,9.764983177,-0.003350013169,-0.0009043228347,-0.0001892423898,0,0,0,0,0,0,0,0,0
0,0,1453423,0.01032472774,0,0.002400000114,0.03563098982,0.01344890799,9.858730316,0.002669985872,0.00760819111,0.00202800543,0,0,0,0,0,0,0,0,0
0,0,1463380,0.009972462431,0,0.00270000007,-0.04408204556,0.01263359468,9.829586983,0.0003999482142,-0.001980969682,-0.00431656139,0,0,0,0,0,0,0,0,0
0,0,1473707,0.009741663933,0,0.002099999925,-0.03844869882,0.01432947256,9.739391327,0.0005899880198,0.001773108728,0.002398791257,0,0,0,0,0,0,0,0,0
0,0,1483457,0.009319334291,0,0.002400000114,-0.04328847304,-0.001008013613,9.8303442,-0.0007900200435,0.0004679982085,0.002226352692,0,0,0,0,0,0,0,0,0
0,0,1493660,0.009008883499,0,0.002600000007,-0.03492501006,-0.002640800085,9.821102142,-0.004479931667,-0.003841527272,0.002446586033,0,0,0,0,0,0,0,0,0
0,0,1503415,0.009313431568,0,0.002000000095,0.04075845703,0.009871263057,9.742856979,0.002649983158,0.00230266829,-0.002816737164,0,0,0,0,0,0,0,0,0
0,0,1513583,0.01004041824,0,0.002400000114,0.07290493697,0.01065139659,9.836639404,-0.002789959777,-0.002513540443,0.001299091848,0,0,0,0,0,0,0,0,0
0,0,1523413,0.0098325992,0,0.002899999963,-0.01566446759,0.002494132379,9.850453377,0.009020089172,0.006741404068,-0.00240247068,0,0,0,0,0,0,0,0,0
0,0,1533427,0.009433981031,0,0.002199999988,-0.02774590068,-0.02202773839,9.726695061,-0.0001999887754,-0.002106844215,-0.0007486734539,0,0,0,0,0,0,0,0,0
0,0,1543384,0.00921954494,0,0.002099999925,-0.02687835321,0.0009145572549,9.794079781,-0.001960021211,-0.0006266185665,0.002661064733,0,0,0,0,0,0,0,0,0
0,0,1553345,0.009104944766,0,0.002499999944,-0.02318834513,0.01643465273,9.839519501,-0.00315998937,-0.006049800664,0.000203905438,0,0,0,0,0,0,0,0,0
0,0,1563346,0.009308598004,0,0.002000000095,0.02266100794,0.005012185778,9.747899055,3.000903962e-05,0.005586292595,-0.002259874484,0,0,0,0,0,0,0,0,0
0,0,1573424,0.009741663933,0,0.002400000114,0.06618369371,-0.01547156088,9.838279724,-0.0003800263803,-0.004190252163,-0.0006763626589,0,0,0,0,0,0,0,0,0
0,0,1583858,0.009334345348,0,0.002899999963,-0.03124923073,-0.01398627087,9.846133232,0.0003799987608,0.004324148409,0.0002504840377,0,0,0,0,0,0,0,0,0
0,0,1593412,0.008914033882,0,0.002099999925,-0.05056383461,0.002986067208,9.726119995,0.000669981644,-0.001888420666,-0.001311980188,0,0,0,0,0,0,0,0,0
0,0,1603759,0.008908984251,0,0.001799999969,-0.01125117764,0.008635925129,9.764513016,0.002949987538,0.0009705829434,-0.002469846513,0,0,0,0,0,0,0,0,0
0,0,1613339,0.008908984251,0,0.002099999925,0.007154138759,-0.002604829613,9.837188721,-0.0008499078103,-0.003114665626,0.002560373861,0,0,0,0,0,0,0,0,0
0,0,1623661,0.009126883931,0,0.001799999969,0.03241719306,-0.0117549831,9.766156197,-0.000549950928,0.002448585117,0.00409157481,0,0,0,0,0,0,0,0,0
0,0,1633401,0.009575488977,0,0.001900000032,0.06467261165,-0.01001517382,9.805646896,-0.004919973202,-0.002544331132,0.0007079147035,0,0,0,0,0,0,0,0,0
0,0,1643586,0.009552486241,0,0.002600000007,-0.007955617271,0.01458494086,9.875173569,0.0034798251,-0.0007942689699,-0.003887975588,0,0,0,0,0,0,0,0,0
0,0,1653492,0.009326307103,0,0.002099999925,-0.0287978407,0.01429657079,9.747092247,0.001529992791,0.001448323252,-0.0002331990545,0,0,0,0,0,0,0,0,0
0,0,1663485,0.009334345348,0,0.001500000013,0.002312347526,-0.01133750845,9.739157677,-0.0008300034679,0.004109721631,0.0003835108946,0,0,0,0,0,0,0,0,0
0,0,1673425,0.009035484865,0,0.002000000095,-0.01612955518,-0.005929814186,9.851596832,-0.00138000038,-0.0006448555505,0.0001391408296,0,0,0,0,0,0,0,0,0
0,0,1683384,0.009035484865,0,0.002000000095,-0.003272638656,0.00187302276,9.797034264,-0.003809982445,-0.001524707768,0.001351221697,0,0,0,0,0,0,0,0,0
0,0,1693450,0.00954253599,0,0.001799999969,0.04904343188,0.0208773464,9.785531044,0.004239959642,0.002859924454,0.002514194464,0,0,0,0,0,0,0,0,0
0,0,1703393,0.00966281537,0,0.002600000007,0.01844939403,-0.002617100021,9.878912926,0.001499953447,-0.002099044155,-0.009312988259,0,0,0,0,0,0,0,0,0
0,0,1713365,0.00944298692,0,0.002600000007,-0.02646858245,0.0009094713605,9.797384262,-0.0001600652758,0.001268164953,0.009326040745,0,0,0,0,0,0,0,0,0
0,0,1723382,0.009154780768,0,0.001900000032,-0.01398184709,-0.0223578494,9.724493027,-0.0002200813178,-0.004931255709,-0.001890947227,0,0,0,0,0,0,0,0,0
0,0,1733389,0.009154780768,0,0.002000000095,0.001992690843,-0.0002875530336,9.817271233,-0.004390161484,0.0002911440097,-0.004032495432,0,0,0,0,0,0,0,0,0
0,0,1743368,0.009453041479,0,0.002300000051,0.02156875096,0.02035355195,9.821648598,-0.00132999511,0.003329058643,0.0006985568907,0,0,0,0,0,0,0,0,0
0,0,1753739,0.009984988719,0,0.002000000095,0.06501651555,0.008358601481,9.775316238,0.006129937246,0.003661549417,0.00217007543,0,0,0,0,0,0,0,0,0
0,0,1763381,0.01002846006,0,0.00270000007,0.01583676226,-0.01871002093,9.865098953,-0.005530118011,-0.005383081269,-0.004917350132,0,0,0,0,0,0,0,0,0
0,0,1773633,0.009343447164,0,0.003199999919,-0.09078578651,0.01499573421,9.854578018,0.002549879486,0.005417870823,0.004158147611,0,0,0,0,0,0,0,0,0
0,0,1784249,0.008809085935,0,0.002400000114,-0.05926957354,0.007139888592,9.718455315,0.0002498661343,-0.006315529346,-0.003937087022,0,0,0,0,0,0,0,0,0
0,0,1793662,0.008908984251,0,0.002099999925,0.006618818268,0.01016091183,9.773893356,-0.003950187936,0.007327202242,0.00482052099,0,0,0,0,0,0,0,0,0
0,0,1803422,0.00921954494,0,0.002600000007,0.03537579253,0.001632938976,9.849737167,0.005520062055,-0.006655375473,0.002215082524,0,0,0,0,0,0,0,0,0
0,0,1813446,0.009563472122,0,0.001900000032,0.05643771961,-0.0144373849,9.727069855,-0.006710027345,-0.001691215439,-0.0006049998919,0,0,0,0,0,0,0,0,0
0,0,1823352,0.0098858485,0,0.002099999925,0.04509017989,0.004244906828,9.81882,0.002660002792,0.004543805029,-0.002813880099,0,0,0,0,0,0,0,0,0
0,0,1833415,0.00965194311,0,0.00270000007,-0.03677042946,0.01157004572,9.856272697,0.001359998831,-0.0003477961582,-0.0003814982774,0,0,0,0,0,0,0,0,0
0,0,1843434,0.009313431568,0,0.002099999925,-0.0591025427,0.01719593629,9.745596886,0.0002000147942,-0.0006583793438,0.001479402184,0,0,0,0,0,0,0,0,0
0,0,1853512,0.009104944766,0,0.001799999969,-0.02197812684,0.003787873778,9.765763283,0.002650013659,0.001746531576,-0.001714221318,0,0,0,0,0,0,0,0,0
0,0,1863430,0.008905055001,0,0.002199999988,-0.01268348191,-0.0111272037,9.841732979,-0.004580041859,-0.002909956966,-0.001895433408,0,0,0,0,0,0,0,0,0
0,0,1873442,0.009104944766,0,0.001900000032,0.01474885829,0.008679882623,9.77163887,0.0001600382384,0.001692420454,0.007649012841,0,0,0,0,0,0,0,0,0
0,0,1883795,0.009525754489,0,0.00139999995,0.06124168262,0.0002043010172,9.751460075,-0.001300120377,0.005209537689,0.002560587134,0,0,0,0,0,0,0,0,0
0,0,1893379,0.00963327568,0,0.002300000051,0.01738256402,0.0008394079632,9.883430481,0.005210164934,-0.002437852323,-0.007502929773,0,0,0,0,0,0,0,0,0
0,0,1903690,0.009313431568,0,0.002199999988,-0.03966852278,0.001479401952,9.789205551,-0.001269999542,-0.001448586932,-6.705998385e-05,0,0,0,0,0,0,0,0,0
0,0,1913332,0.009108787403,0,0.001500000013,-0.023422122,-0.005085006822,9.734858513,0.001790022128,-0.001610676059,0.002769195475,0,0,0,0,0,0,0,0,0
0,0,1923590,0.008908984251,0,0.001900000032,-0.009144261479,-0.01265263278,9.836084366,-0.005890085362,-0.001754376339,-0.003278590972,0,0,0,0,0,0,0,0,0
0,0,1933404,0.009113726206,0,0.002300000051,0.02037384547,0.01394362748,9.838040352,0.002470039995,-0.001154804137,0.001052962383,0,0,0,0,0,0,0,0,0
0,0,1943503,0.009741663933,0,0.001799999969,0.07559025288,-0.004412009381,9.749992371,0.001860002056,0.003838435747,-0.002046509879,0,0,0,0,0,0,0,0,0
0,0,1953356,0.009972462431,0,0.002499999944,0.03634690866,-0.00296455808,9.876294136,0.003490020987,-0.002488530939,0.000839682587,0,0,0,0,0,0,0,0,0
0,0,1963407,0.009326307103,0,0.0027999999,-0.07878662646,-0.006294214632,9.822381973,-0.007950071245,0.004450274631,0.003756450256,0,0,0,0,0,0,0,0,0
0,0,1973331,0.008805111982,0,0.002300000051,-0.05161949992,0.006169426721,9.750736237,0.004460002761,-0.001856811228,-0.001360965776,0,0,0,0,0,0,0,0,0
0,0,1983471,0.008908984251,0,0.002400000114,0.005662881769,0.002034859033,9.807621002,0.003169995034,-0.003777688835,-0.0001326608326,0,0,0,0,0,0,0,0,0
0,0,1993451,0.009013878182,0,0.00270000007,0.01253936067,-0.001379443565,9.836321831,0.001109648729,-0.002836330794,-0.005404831842,0,0,0,0,0,0,0,0,0
0,0,2003385,0.009334345348,0,0.002099999925,0.06004347652,-0.003199089086,9.739031792,-0.006819904316,0.003968001343,0.003821056103,0,0,0,0,0,0,0,0,0
0,0,2013377,0.009773945436,0,0.002300000051,0.05811962858,-0.005177723244,9.813810349,-0.0005699933972,0.00235443376,0.003288213629,0,0,0,0,0,0,0,0,0
0,0,2023405,0.00966281537,0,0.0027999999,-0.0170211643,-0.0008037164225,9.854564667,0.002959970385,-0.0005805313704,-0.003690807149,0,0,0,0,0,0,0,0,0
0,0,2033743,0.009326307103,0,0.002099999925,-0.03704601154,0.01838506013,9.734110832,0.003829962807,0.002260651905,0.002484640572,0,0,0,0,0,0,0,0,0
0,0,2043367,0.009226592258,0,0.001700000023,-0.01826842502,-0.006763508543,9.752220154,-0.0046401117,-0.004856110085,-0.003279201221,0,0,0,0,0,0,0,0,0
0,0,2053651,0.008914033882,0,0.002300000051,-0.03094354272,0.0009419891867,9.863732338,-0.0008199163713,0.0007759621949,0.003216911573,0,0,0,0,0,0,0,0,0
0,0,2063344,0.008914033882,0,0.001900000032,0.002997583244,0.002284771064,9.758318901,0.0001800049504,0.001674823929,0.0004946342669,0,0,0,0,0,0,0,0,0
0,0,2073557,0.009433981031,0,0.00159999996,0.05955116451,0.0104356166,9.766880035,0.002350009745,0.001464474015,-0.00196350948,0,0,0,0,0,0,0,0,0
0,0,2083416,0.00963327568,0,0.002300000051,0.01577275433,0.008443014696,9.875067711,0.001079990529,-0.006267998833,-0.0001634280052,0,0,0,0,0,0,0,0,0
0,0,2093469,0.00921954494,0,0.002000000095,-0.04714885354,-0.00377043779,9.77052021,-0.0009700024966,0.006296946201,0.0005045419093,0,0,0,0,0,0,0,0,0
0,0,2103561,0.009019977413,0,0.00139999995,-0.0120006809,-0.01350062806,9.739486694,0.0007098853239,-0.004491639324,-0.002797184046,0,0,0,0,0,0,0,0,0
0,0,2113370,0.008914033882,0,0.001799999969,-0.01504429989,0.003748121904,9.834605217,-0.002819991438,0.001530098962,0.0003299176751,0,0,0,0,0,0,0,0,0
0,0,2123399,0.009113726206,0,0.002000000095,0.02344972268,0.01880501211,9.816484451,-0.0004199672549,-0.002950532362,0.0005845387932,0,0,0,0,0,0,0,0,0
0,0,2133490,0.009741663933,0,0.001700000023,0.07130303234,0.008810460567,9.775314331,0.006930052768,0.002516167238,0.001702195965,0,0,0,0,0,0,0,0,0
0,0,2143354,0.009751410224,0,0.002300000051,0.00200846442,-0.0121286558,9.860401154,-0.005909978878,0.002028207527,0.001936911489,0,0,0,0,0,0,0,0,0
0,0,2153335,0.009013878182,0,0.002600000007,-0.07863119245,-0.0002906509035,9.829184532,-0.004840018228,0.0003743578854,-0.002589165932,0,0,0,0,0,0,0,0,0
0,0,2163809,0.008800568059,0,0.001799999969,-0.03724166751,0.01627875865,9.721857071,0.002790012863,0.0001800441096,0.002156968229,0,0,0,0,0,0,0,0,0
0,0,2173342,0.008800568059,0,0.002099999925,-0.002154257149,0.001390478457,9.829716682,0.004279938526,-0.001851469046,-0.002451445907,0,0,0,0,0,0,0,0,0
0,0,2183707,0.009008883499,0,0.002499999944,0.03707706183,-0.0009241169901,9.836753845,-0.002929893089,0.0006773647037,0.005945174955,0,0,0,0,0,0,0,0,0
0,0,2193854,0.00954253599,0,0.002099999925,0.06995609403,-0.01071565505,9.755786896,0.001829896821,0.0002392435272,-0.006445660722,0,0,0,0,0,0,0,0,0
0,0,2203625,0.009960923344,0,0.002199999988,0.04107055068,0.005382064264,9.816173553,-0.009730008431,0.00195910316,0.002825216623,0,0,0,0,0,0,0,0,0
0,0,2213391,0.009725225158,0,0.002899999963,-0.03670661896,0.02230574936,9.86762619,0.008039929904,-0.005307578947,-0.001393421669,0,0,0,0,0,0,0,0,0
0,0,2223536,0.009513149038,0,0.002000000095,-0.02616027929,0.003538342193,9.706327438,0.001100032357,0.001620900235,0.0009230446885,0,0,0,0,0,0,0,0,0
0,0,2233393,0.009313431568,0,0.001900000032,-0.01238041278,-0.008441324346,9.793775558,0.002640002873,0.003296094947,0.001407601754,0,0,0,0,0,0,0,0,0
0,0,2243429,0.009013878182,0,0.002400000114,-0.01941300184,-0.0117639536,9.8419981,-0.001500048209,-0.001638647867,-0.002534460276,0,0,0,0,0,0,0,0,0
0,0,2253403,0.009319334291,0,0.001799999969,0.03190974146,0.008177515119,9.740293503,-0.0008200011798,0.001789310831,-0.001182567095,0,0,0,0,0,0,0,0,0
0,0,2263354,0.0098325992,0,0.001900000032,0.04916452989,0.01521614566,9.811255455,0.001440006192,0.002569680102,-0.0002567624324,0,0,0,0,0,0,0,0,0
0,0,2273428,0.00963327568,0,0.002499999944,-0.01627176814,-0.005276285112,9.86393261,-0.004750041291,-0.003688613884,-0.003181420267,0,0,0,0,0,0,0,0,0
0,0,2283404,0.009319334291,0,0.002099999925,-0.03571472317,-0.003950387705,9.751405716,0.003720122389,-0.000609360286,0.006443552673,0,0,0,0,0,0,0,0,0
0,0,2293864,0.009019977413,0,0.00139999995,-0.017272586,-0.01652832516,9.735190392,-0.001059928443,0.004775472917,-0.002556405729,0,0,0,0,0,0,0,0,0
0,0,2303402,0.009226592258,0,0.002000000095,0.01515626907,0.01217170991,9.856488228,-0.0006698942161,-0.005364871584,0.004068021197,0,0,0,0,0,0,0,0,0
0,0,2313763,0.00954253599,0,0.001799999969,0.04323371127,0.0006406939356,9.781580925,-0.001689960598,0.004377621226,-0.002319087507,0,0,0,0,0,0,0,0,0
0,0,2323435,0.01009752415,0,0.001900000032,0.06776866317,-0.01227547321,9.808675766,-0.0002900344552,-0.002411449328,-0.004920913838,0,0,0,0,0,0,0,0,0
0,0,2333671,0.009575488977,0,0.00270000007,-0.04713202268,-0.001718605054,9.880954742,0.001060053241,-0.0009921306046,0.003129419172,0,0,0,0,0,0,0,0,0
0,0,2343375,0.008814193308,0,0.002499999944,-0.1017640978,0.008859278634,9.781534195,0.002430004301,0.004447395448,-0.0001557281794,0,0,0,0,0,0,0,0,0
0,0,2353573,0.008705171756,0,0.001900000032,-0.02044696361,0.009891490452,9.732143402,0.0002600255248,-0.005204585381,0.0009816716192,0,0,0,0,0,0,0,0,0
0,0,2363405,0.008605231531,0,0.002099999925,-0.00603814004,-0.002229698235,9.826810837,-0.003489936935,-0.002124693012,0.001341871684,0,0,0,0,0,0,0,0,0
0,0,2373485,0.008927484974,0,0.002199999988,0.0513529554,-0.01192096528,9.804286003,-0.001210035058,0.001122236834,-0.0009740121895,0,0,0,0,0,0,0,0,0
0,0,2383539,0.009687621146,0,0.001700000023,0.09700231999,-0.003879693104,9.752317429,0.0004400296602,0.0005091817002,0.0009570307448,0,0,0,0,0,0,0,0,0
0,0,2393798,0.009800510481,0,0.002199999988,0.02175317146,0.00505211344,9.851563454,-0.0004999833182,-0.001462554443,0.000362700026,0,0,0,0,0,0,0,0,0
0,0,2403357,0.009453041479,0,0.002499999944,-0.05396878347,0.01157079171,9.826249123,0.003980000038,0.005363018252,-5.95981237e-06,0,0,0,0,0,0,0,0,0
0,0,2413409,0.009126883931,0,0.001799999969,-0.03712918609,0.005653906614,9.728395462,0.003190007294,-0.0004206438607,-0.002454915782,0,0,0,0,0,0,0,0,0
0,0,2423340,0.00871435646,0,0.001900000032,-0.04063512385,-0.007370786741,9.810241699,-0.00772997411,-0.002942581428,0.0009550988325,0,0,0,0,0,0,0,0,0
0,0,2433516,0.00850940682,0,0.002300000051,-0.02674878389,0.001713814796,9.843153,0.0004101718368,-0.002861205954,0.003068641294,0,0,0,0,0,0,0,0,0
0,0,2443722,0.009126883931,0,0.00159999996,0.0656388998,0.004530677106,9.724987984,-0.002290001838,0.005207413342,-0.0004509295977,0,0,0,0,0,0,0,0,0
0,0,2453340,0.009762172587,0,0.002000000095,0.07986562699,0.01812352799,9.837965012,0.006759991404,-0.002210720209,-0.0003220772778,0,0,0,0,0,0,0,0,0
0,0,2463844,0.00966281537,0,0.002300000051,-0.01283443999,-0.00707030762,9.835551262,-0.0006900150911,2.816690358e-05,-0.0005593619426,0,0,0,0,0,0,0,0,0
0,0,2475126,0.009353608824,0,0.001799999969,-0.02880509011,-0.007591732778,9.745494843,-0.00250993832,0.0007701667491,0.003086689627,0,0,0,0,0,0,0,0,0
0,0,2483631,0.009144397452,0,0.001700000023,-0.0225958731,-0.002744128462,9.793676376,0.000160088035,0.00402506208,-0.004401607439,0,0,0,0,0,0,0,0,0
0,0,2493423,0.009027180262,0,0.002199999988,-0.01554544456,0.01719497144,9.848770142,-0.0049298089,-0.005535392091,0.005302953534,0,0,0,0,0,0,0,0,0
0,0,2503527,0.009343447164,0,0.002099999925,0.0345804207,0.006724315695,9.788877487,0.006040005945,0.00378641882,-0.002908601426,0,0,0,0,0,0,0,0,0
0,0,2513365,0.00989949517,0,0.002199999988,0.07177843899,-0.007283886429,9.804421425,0.003099975176,-0.0009495561244,-0.003112458391,0,0,0,0,0,0,0,0,0
0,0,2523452,0.009575488977,0,0.0027999999,-0.03372393548,-0.005639873911,9.859503746,0.0003399707784,-0.001957172528,-0.001044028439,0,0,0,0,0,0,0,0,0
0,0,2533407,0.009234717116,0,0.002400000114,-0.05176572129,0.009583905339,9.761545181,0.0003200983629,0.0005073681823,0.004098599311,0,0,0,0,0,0,0,0,0
0,0,2543461,0.009243917651,0,0.001700000023,0.006438937038,0.004409985617,9.734266281,-0.001519999001,0.002023092005,0.0002457671799,0,0,0,0,0,0,0,0,0
0,0,2553487,0.009364827536,0,0.002099999925,0.02704891004,-0.009720878676,9.831969261,-0.00368022453,-0.006192749366,-0.003402675968,0,0,0,0,0,0,0,0,0
0,0,2563372,0.01008067466,0,0.001700000023,0.0920683369,-0.01880791411,9.762633324,0.001720023109,0.005946184974,0.003294739174,0,0,0,0,0,0,0,0,0
0,0,2573329,0.01166918967,0,0.0006000000285,0.206761241,-0.05838753656,9.688815117,-0.001549979206,0.001159004052,-0.005185101181,0,0,0,0,0,0,0,0,0
0,0,2583467,0.01369708031,0,9.999999747e-05,0.2355659455,-0.06271198392,9.752209663,0.001299889409,0.001971503953,0.004606458358,0,0,0,0,0,0,0,0,0
0,0,2593801,0.01597059891,0,-0.001000000047,0.2369544208,-0.04834260792,9.682946205,0.002220131457,0.005348203704,-0.001707230345,0,0,0,0,0,0,0,0,0
0,0,2603473,0.01906646229,0,-0.002300000051,0.3137615621,0.03643532097,9.669789314,-0.001960015623,-0.004116666503,0.0004465385282,0,0,0,0,0,0,0,0,0
0,0,2613687,0.02215513587,0,-0.002899999963,0.3068039417,0.0593219921,9.739780426,0.001400085865,0.005753327161,-0.0009336943622,0,0,0,0,0,0,0,0,0
0,0,2623414,0.02551568113,0,-0.003100000089,0.3281927407,0.04554262385,9.77927494,-0.004019499756,0.001128341071,-0.004856322426,0,0,0,0,0,0,0,0,0
0,0,2633598,0.0298303552,0,-0.00419999985,0.4360498488,0.04098585248,9.691102982,-0.0001508254645,0.002633506199,0.006398913916,0,0,0,0,0,0,0,0,0
0,0,2643360,0.03395673633,0,-0.004399999976,0.4165816307,-0.0008216232527,9.781798363,-0.0004196394293,0.001681683119,-0.00248673372,0,0,0,0,0,0,0,0,0
0,0,2653521,0.03728404641,0,-0.00400000019,0.3338795006,0.02794113755,9.84058094,-0.004609894939,0.004050641786,-0.0005693610874,0,0,0,0,0,0,0,0,0
0,0,2663361,0.04061920941,0,-0.004399999976,0.344563365,-0.008184208535,9.756379128,-0.001330655185,0.003394403029,0.002991786227,0,0,0,0,0,0,0,0,0
0,0,2673418,0.04427007958,0,-0.004600000102,0.363279134,-0.01489611063,9.779409409,-0.004810171667,0.004931722302,0.0006398169789,0,0,0,0,0,0,0,0,0
0,0,2683421,0.04790041968,0,-0.003800000064,0.3642480671,0.01604845747,9.876871109,0.004112842493,0.004171707667,-0.009197787382,0,0,0,0,0,0,0,0,0
0,0,2693366,0.05225322768,0,-0.003599999938,0.4382405877,0.02112131566,9.822952271,-0.001780741382,0.003281114856,0.002167428145,0,0,0,0,0,0,0,0,0
0,0,2703360,0.05655236542,0,-0.003199999919,0.4327088892,-0.004798384849,9.834526062,0.005769844167,0.007461822126,0.0003752429911,0,0,0,0,0,0,0,0,0
0,0,2713399,0.06005205959,0,-0.002300000051,0.3523312509,-0.01886823215,9.894560814,-0.001209217706,-0.0024462156,-0.002001105342,0,0,0,0,0,0,0,0,0
0,0,2723384,0.06346692145,0,-0.001799999969,0.3443423808,0.007378166541,9.844882011,0.002299908316,0.001153210527,0.0002285326045,0,0,0,0,0,0,0,0,0
0,0,2733429,0.0675784722,0,-0.002199999988,0.4114170671,-0.004132000264,9.761620522,-0.003211465664,0.004706255626,0.003263425315,0,0,0,0,0,0,0,0,0
0,0,2743759,0.07165821642,0,-0.00159999996,0.4084920585,0.02168085612,9.864318848,-0.0006391204079,0.0008130659116,-0.001924850396,0,0,0,0,0,0,0,0,0
0,0,2753374,0.07581991702,0,-0.0007999999798,0.4176630378,0.03770625591,9.874048233,0.0054891482,0.004346990492,0.001704882714,0,0,0,0,0,0,0,0,0
0,0,2763671,0.08060632646,0,-0.0006000000285,0.4817400575,-0.02336193062,9.818160057,0.001380254282,-0.0004235297674,-0.0005133426748,0,0,0,0,0,0,0,0,0
0,0,2773346,0.08517540991,0,-0.0001999999949,0.4606227875,-0.02306550741,9.845692635,-0.0001284909813,0.004193644971,-0.002815356245,0,0,0,0,0,0,0,0,0
0,0,2784091,0.08967463672,0,0.0001999999949,0.4542047679,0.0218706876,9.839548111,-0.001949430676,-0.0008354193997,-0.001078746631,0,0,0,0,0,0,0,0,0
0,0,2793411,0.0944532156,0,9.999999747e-05,0.4824605584,0.00706422748,9.789548874,0.001818060642,-0.0002600958105,0.003694456071,0,0,0,0,0,0,0,0,0
0,0,2803559,0.09866635501,0,0.0001999999949,0.4187076986,-0.02684328891,9.804265976,-0.004250755999,0.007653086912,0.001256992109,0,0,0,0,0,0,0,0,0
0,0,2813433,0.1024836153,0,0.000699999975,0.3864068985,-0.01338759251,9.854816437,-0.002158849966,-0.0003476290731,-0.001923621749,0,0,0,0,0,0,0,0,0
0,0,2823407,0.1071410775,0,0.000699999975,0.4647871852,-0.02220393717,9.799546242,0.005993316416,0.003701912239,-0.005228719208,0,0,0,0,0,0,0,0,0
0,0,2833429,0.1118801162,0,0.001300000004,0.4749492109,-0.0129469391,9.854870796,0.0004490006831,-0.001953882631,0.001627679565,0,0,0,0,0,0,0,0,0
0,0,2843423,0.1159001738,0,0.00159999996,0.4087468982,-0.00957679376,9.832052231,-0.004771018401,0.00221903692,0.001599986572,0,0,0,0,0,0,0,0,0
0,0,2853433,0.1200010478,0,0.001700000023,0.4096124172,-0.01794859767,9.809167862,0.0008799890056,0.0005197250284,1.747201532e-05,0,0,0,0,0,0,0,0,0
0,0,2863561,0.1240040287,0,0.001799999969,0.4048922956,-0.03511736169,9.809914589,-0.002464768011,0.0002548748453,-0.008137601428,0,0,0,0,0,0,0,0,0
0,0,2873817,0.1280834526,0,0.002099999925,0.4099963605,0.02804284357,9.826997757,-0.001163874404,0.00285382336,0.005765170325,0,0,0,0,0,0,0,0,0
0,0,2883364,0.1325227916,0,0.002000000095,0.4412471354,0.01962395012,9.786932945,-0.0002259897592,0.001880191849,-0.005812031217,0,0,0,0,0,0,0,0,0
0,0,2893728,0.1368635148,0,0.002400000114,0.431969583,0.005363346543,9.846688271,0.004980864003,0.00242067175,-0.001208404545,0,0,0,0,0,0,0,0,0
0,0,2903329,0.1403256655,0,0.002600000007,0.3571224511,-0.006722257007,9.814605713,-0.0001204129221,-0.005373177119,0.0006255946937,0,0,0,0,0,0,0,0,0
0,0,2913639,0.1441246718,0,0.001799999969,0.3715213239,0.02689533494,9.72359848,-0.003759761341,0.006874264684,-0.0003292060283,0,0,0,0,0,0,0,0,0
0,0,2923364,0.148242265,0,0.001700000023,0.4122592509,0.04801026732,9.786626816,0.002603016794,-0.002901173895,-0.004314799327,0,0,0,0,0,0,0,0,0
0,0,2933532,0.1521214247,0,0.00139999995,0.393139869,0.02614359744,9.769098282,-0.002371355426,-0.0006641100044,0.001957787434,0,0,0,0,0,0,0,0,0
0,0,2943442,0.156242162,0,0.0008999999845,0.4134811759,0.004444448277,9.748508453,-0.0005737828906,0.002810487989,0.005253839772,0,0,0,0,0,0,0,0,0
0,0,2953432,0.1605636328,0,0.001000000047,0.4337638617,-0.01149195898,9.805238724,0.00109499821,0.00186133408,-0.00677222386,0,0,0,0,0,0,0,0,0
0,0,2963405,0.1647036672,0,0.000699999975,0.4157390594,0.02282509208,9.775642395,-0.002632559044,0.001460090745,0.003397362074,0,0,0,0,0,0,0,0,0
0,0,2973416,0.1688628495,0,-0.0001999999949,0.4117242098,0.02090506628,9.705124855,0.004933873657,0.000736151298,-0.005095014349,0,0,0,0,0,0,0,0,0
0,0,2983470,0.1731048822,0,-0.0003999999899,0.4293650985,-0.007811556105,9.781567574,-0.001291519264,0.004190512467,0.001896254718,0,0,0,0,0,0,0,0,0
0,0,2993360,0.1767493784,0,-0.0003000000142,0.3688732982,-0.03584676236,9.810423851,0.000211841063,0.0006944686756,-0.002278450411,0,0,0,0,0,0,0,0,0
0,0,3003354,0.1807915121,0,-0.0008999999845,0.4061546326,-0.007606190629,9.743444443,0.001517463359,0.002832886064,0.00303495652,0,0,0,0,0,0,0,0,0
0,0,3013412,0.1854130477,0,-0.000699999975,0.461425364,-0.004672804847,9.818916321,-0.002286276314,-0.00337078888,-0.004643933848,0,0,0,0,0,0,0,0,0
0,0,3023333,0.189534694,0,9.999999747e-05,0.4131605029,0.003239562502,9.879668236,0.003898436436,0.003140806453,0.001876280061,0,0,0,0,0,0,0,0,0
0,0,3033519,0.1934620291,0,-0.0006000000285,0.3993930817,-0.03611441702,9.730420113,-0.002902608598,0.003043389181,0.003018053249,0,0,0,0,0,0,0,0,0
0,0,3043678,0.1975485831,0,-0.000699999975,0.4087916613,-0.02737330459,9.789561272,0.0005139940768,0.004705190659,-0.004388882779,0,0,0,0,0,0,0,0,0
0,0,3053392,0.2016707212,0,-9.999999747e-05,0.4098537862,-0.003690944053,9.859083176,0.0003124178038,0.003714878578,-0.002550288802,0,0,0,0,0,0,0,0,0
0,0,3063601,0.2063717544,0,-0.0001999999949,0.4696782529,0.009002333507,9.787488937,0.005725053139,-0.001472929725,0.0053103338,0,0,0,0,0,0,0,0,0
0,0,3073424,0.2110553086,0,-9.999999747e-05,0.473359704,-0.01121077687,9.811102867,-0.006602275651,0.007099875249,0.00226544193,0,0,0,0,0,0,0,0,0
0,0,3083501,0.2150641978,0,0.001200000057,0.4056639969,-0.02719417028,9.926285744,-0.003281689482,-0.0001899229828,-0.008303869516,0,0,0,0,0,0,0,0,0
0,0,3093370,0.2188887596,0,0.001000000047,0.386321336,-0.009034999646,9.778867722,0.003572182963,-0.0001090259102,-0.002181128832,0,0,0,0,0,0,0,0,0
0,0,3103507,0.2228878886,0,0.001000000047,0.4004534781,0.01096804533,9.801548958,-0.004889926407,-0.002558968263,-7.812491094e-05,0,0,0,0,0,0,0,0,0
0,0,3113339,0.2266062796,0,0.002000000095,0.371568799,0.02306688204,9.900677681,-0.0007963834214,0.001849588356,-0.003642485011,0,0,0,0,0,0,0,0,0
0,0,3123363,0.2305095792,0,0.002000000095,0.3990186751,-0.008716657758,9.793401718,0.005487457849,0.001699073706,0.002522112802,0,0,0,0,0,0,0,0,0
0,0,3133465,0.2345980704,0,0.002099999925,0.4051173627,-0.02159655094,9.817142487,-0.004104178865,0.00690939324,-0.00540235173,0,0,0,0,0,0,0,0,0
0,0,3143383,0.2385524064,0,0.003500000108,0.3981343806,0.02782462537,9.938471794,0.006508142687,-0.003489595838,0.001784349442,0,0,0,0,0,0,0,0,0
0,0,3153354,0.2425515503,0,0.003400000045,0.3980556726,0.02137537673,9.783600807,-0.0008575894753,0.004494361114,-0.002216045512,0,0,0,0,0,0,0,0,0
0,0,3163397,0.2463487536,0,0.003400000045,0.386320889,0.02402800508,9.806670189,-0.0009960745228,-0.004899666645,-0.003782314248,0,0,0,0,0,0,0,0,0
0,0,3173732,0.2497692406,0,0.003800000064,0.3359692395,0.01058320329,9.840514183,-0.002383807907,0.002204258461,0.003591086948,0,0,0,0,0,0,0,0,0
0,0,3183478,0.2534705102,0,0.003500000108,0.3735091984,-0.00223199022,9.765994072,0.001591601293,0.000459206407,-0.001504172455,0,0,0,0,0,0,0,0,0
0,0,3193627,0.257486999,0,0.003800000064,0.3988271654,0.03278020024,9.823709488,0.0006840311689,0.005310138222,-0.003608522471,0,0,0,0,0,0,0,0,0
0,0,3203364,0.2612405121,0,0.004499999806,0.3757362068,0.05080271885,9.874087334,-0.001441621687,-0.003640788607,0.001500828424,0,0,0,0,0,0,0,0,0
0,0,3213541,0.2650645673,0,0.003500000108,0.3879855871,-0.01294327341,9.703313828,0.005494129378,-0.001704681548,-0.003881559707,0,0,0,0,0,0,0,0,0
0,0,3223381,0.2688714564,0,0.002899999963,0.3807691932,-0.01903551072,9.738459587,-0.0005416479544,0.008047414944,0.001441468485,0,0,0,0,0,0,0,0,0
0,0,3233454,0.2728706896,0,0.003400000045,0.3953918219,0.01798706688,9.845134735,-0.004387292545,-0.003382405033,-0.002446140163,0,0,0,0,0,0,0,0,0
0,0,3243370,0.2774487138,0,0.002400000114,0.4611085355,0.01429503784,9.695138931,0.0002509417245,0.006729621906,-0.0008013207698,0,0,0,0,0,0,0,0,0
0,0,3253423,0.2821151912,0,0.002300000051,0.4658384323,-0.01333766803,9.79169178,0.00422324799,0.001599473879,-0.002724474529,0,0,0,0,0,0,0,0,0
0,0,3263361,0.2859842181,0,0.003000000026,0.3929643333,-0.02675800398,9.868210793,-0.003284544917,-0.002219553106,-0.004668452777,0,0,0,0,0,0,0,0,0
0,0,3273341,0.2900110781,0,0.002199999988,0.3985212445,-0.02548339777,9.726704597,-0.001301003154,0.00426529441,0.00082755927,0,0,0,0,0,0,0,0,0
0,0,3283884,0.2937910259,0,0.002099999925,0.3840057254,0.01617871784,9.786247253,0.005907185376,-0.001517141121,0.002359056147,0,0,0,0,0,0,0,0,0
0,0,3293437,0.2973519266,0,0.002499999944,0.3596259356,0.002463583834,9.835222244,-0.001235130243,0.005259449128,-0.00390282576,0,0,0,0,0,0,0,0,0
0,0,3303789,0.3015645444,0,0.002000000095,0.4263425767,-0.04403083399,9.753567696,-0.002297033789,0.001897022827,-0.002342507243,0,0,0,0,0,0,0,0,0
0,0,3313476,0.305872947,0,0.002499999944,0.4244678915,-0.02251206152,9.843597412,0.004360223655,-0.0003043203615,-0.0001744629408,0,0,0,0,0,0,0,0,0
0,0,3323695,0.3097932339,0,0.003299999982,0.4015338123,0.009452925995,9.883042336,0.00128876674,0.004892110825,0.0009408678743,0,0,0,0,0,0,0,0,0
0,0,3333352,0.3137754798,0,0.002899999963,0.3957887888,0.008853961714,9.760977745,-0.0006611156859,0.006226920057,0.0008115356904,0,0,0,0,0,0,0,0,0
0,0,3343606,0.3170554638,0,0.003199999919,0.3302968442,0.001974124694,9.826587677,0.002641389612,-0.0009274033364,-0.001016997499,0,0,0,0,0,0,0,0,0
0,0,3353456,0.3201619685,0,0.003500000108,0.3103561997,-0.02040391602,9.835940361,0.001362822019,0.001257095952,-0.002048469149,0,0,0,0,0,0,0,0,0
0,0,3363541,0.3240494132,0,0.003100000089,0.3861936927,-0.01636699773,9.755642891,0.0002589637879,0.002878221916,-0.006379739381,0,0,0,0,0,0,0,0,0
0,0,3373355,0.3282049596,0,0.003899999894,0.4123960733,0.03127082065,9.877006531,-0.002572051017,0.002384623745,0.001434406964,0,0,0,0,0,0,0,0,0
0,0,3383475,0.3321252465,0,0.004600000102,0.3997178674,0.00985759683,9.874670029,0.00523498375,-0.001276615774,-0.003515764372,0,0,0,0,0,0,0,0,0
0,0,3393398,0.3360747099,0,0.00419999985,0.3968916535,-0.03015219793,9.758822441,-0.0045359293,-6.687820132e-05,-0.002880099695,0,0,0,0,0,0,0,0,0
0,0,3403418,0.3396519721,0,0.004699999932,0.3575352132,0.02163765393,9.850601196,0.000357846875,0.002352711977,0.001497561927,0,0,0,0,0,0,0,0,0
0,0,3413346,0.3435886502,0,0.004800000228,0.3965667486,0.03022246249,9.802815437,0.0003892511595,0.001394026447,0.000516017375,0,0,0,0,0,0,0,0,0
0,0,3423333,0.3482276797,0,0.004699999932,0.4625866413,0.01192492247,9.790605545,0.003125403542,0.001040288829,-0.003693690756,0,0,0,0,0,0,0,0,0
0,0,3433413,0.3526313305,0,0.00540000014,0.4386052191,-0.004836931825,9.873281479,-0.003814844647,-0.0003456528066,-0.00353862741,0,0,0,0,0,0,0,0,0
0,0,3443437,0.3570969701,0,0.005299999844,0.4547309875,-0.003395690816,9.783304214,0.003277272684,0.002181506716,0.001846459461,0,0,0,0,0,0,0,0,0
0,0,3453747,0.3616575301,0,0.004699999932,0.4536751509,0.007060158066,9.743741989,-0.003453359008,0.002174486872,-0.004427021369,0,0,0,0,0,0,0,0,0
0,0,3463405,0.3659701645,0,0.00549999997,0.4359607697,0.04344627261,9.875814438,0.007571686059,-0.004824792966,-0.00115565781,0,0,0,0,0,0,0,0,0
0,0,3473655,0.3704813123,0,0.004800000228,0.4541977048,-0.03671362251,9.738199234,-0.003795478726,0.002700307872,-0.003059784183,0,0,0,0,0,0,0,0,0
0,0,3483319,0.3751333058,0,0.004600000102,0.4671416581,-0.03360295296,9.775093079,-0.005126133095,0.008264556527,-0.00248128362,0,0,0,0,0,0,0,0,0
0,0,3493592,0.3799290061,0,0.0055999998,0.4762583971,0.02728350461,9.903307915,0.007137397304,-0.003216590267,0.001707720105,0,0,0,0,0,0,0,0,0
0,0,3503335,0.3844732046,0,0.0055999998,0.4574137032,-0.001592867775,9.790295601,-0.001183366985,0.001199931838,-0.004305241629,0,0,0,0,0,0,0,0,0
0,0,3513508,0.3885959983,0,0.005700000096,0.4107706547,0.0001464383531,9.811595917,0.005393325817,0.00523033971,-0.002083478263,0,0,0,0,0,0,0,0,0
0,0,3523400,0.3925620615,0,0.005900000222,0.3995085955,-0.009043781087,9.819056511,0.001580656273,-0.005509044509,-0.00042573869,0,0,0,0,0,0,0,0,0
0,0,3533401,0.3966687024,0,0.005100000184,0.4084159136,-0.01260533929,9.723028183,-0.002735801041,0.003478098195,-0.0026732611,0,0,0,0,0,0,0,0,0
0,0,3543461,0.4005429447,0,0.006000000052,0.3921618164,0.02774590813,9.892992973,0.004261267371,0.002957205754,-0.0007881215424,0,0,0,0,0,0,0,0,0
0,0,3553411,0.4044631422,0,0.00680000009,0.3963584602,0.0109544294,9.878865242,-0.0003872007364,0.003347049467,-0.001713457168,0,0,0,0,0,0,0,0,0
0,0,3563452,0.4085535407,0,0.006599999964,0.4124754369,-0.02891161293,9.774628639,0.005006119609,-0.001608851482,-0.003775733756,0,0,0,0,0,0,0,0,0
0,0,3573416,0.4124737382,0,0.006500000134,0.3917459249,0.006436010823,9.795367241,-0.004082825966,0.002065311419,0.00172087783,0,0,0,0,0,0,0,0,0
0,0,3583809,0.4164884984,0,0.007100000046,0.3972355127,0.03587093577,9.855834007,0.005681584589,-0.0008189483196,-0.0009676352493,0,0,0,0,0,0,0,0,0
0,0,3593417,0.420578897,0,0.00680000009,0.4162208736,-0.0218942333,9.767276764,0.0001616284862,0.004635830875,-0.006933970843,0,0,0,0,0,0,0,0,0
0,0,3603699,0.4244829416,0,0.007100000046,0.392321825,-0.006123311818,9.828065872,-0.001824642997,-0.004093668889,0.002836521249,0,0,0,0,0,0,0,0,0
0,0,3613331,0.4283709526,0,0.00680000009,0.3891655505,-0.01980131119,9.771111488,-0.001132376492,0.004678571131,-0.004533386789,0,0,0,0,0,0,0,0,0
0,0,3623620,0.43261832,0,0.006399999838,0.4267134964,-0.01340284664,9.764647484,0.001926914323,-0.00555586582,-0.004248146899,0,0,0,0,0,0,0,0,0
0,0,3633349,0.4364922047,0,0.006300000008,0.391942203,0.02423033677,9.787534714,0.003573529888,0.007580798119,-0.002070938004,0,0,0,0,0,0,0,0,0
0,0,3643512,0.441082865,0,0.006000000052,0.4548848569,-0.01965772733,9.765497208,0.003240676364,-0.0020180149,-0.0003996648593,0,0,0,0,0,0,0,0,0
0,0,3653354,0.4456579089,0,0.005900000222,0.4642632306,-0.0390435122,9.790003777,-0.0008256671135,-0.0002671408001,-0.002581319306,0,0,0,0,0,0,0,0,0
0,0,3663434,0.4499213994,0,0.006099999882,0.4283422828,0.00032376335,9.8163414,-0.003206121502,0.001814448973,-0.002288199961,0,0,0,0,0,0,0,0,0
0,0,3673452,0.4541541934,0,0.006099999882,0.4218567312,0.03183053061,9.80322361,0.005757893901,0.001171124051,0.001238115015,0,0,0,0,0,0,0,0,0
0,0,3683387,0.4580119848,0,0.006099999882,0.3904981911,0.01497689448,9.799655914,-0.00571854692,0.002728224266,-0.000842504669,0,0,0,0,0,0,0,0,0
0,0,3693424,0.4621189833,0,0.006399999838,0.4061240852,-0.01649496518,9.828070641,0.0005632659304,-0.002731201937,-0.007771008182,0,0,0,0,0,0,0,0,0
0,0,3703381,0.4665694833,0,0.00549999997,0.4486967623,-0.01967477985,9.713891983,-0.004672147334,-0.0007915231981,-0.004625865258,0,0,0,0,0,0,0,0,0
0,0,3713585,0.4708023071,0,0.006200000178,0.429810524,0.03034448996,9.870732307,0.006505922414,0.0001939926442,0.008281602524,0,0,0,0,0,0,0,0,0
0,0,3723332,0.47492522,0,0.006699999794,0.4023856819,-0.0005489882315,9.847485542,0.00277047907,0.003750812961,-0.01178071555,0,0,0,0,0,0,0,0,0
0,0,3733768,0.4790946543,0,0.006000000052,0.4284051061,-0.02304190956,9.729068756,6.818831025e-05,0.005060045049,0.001013309695,0,0,0,0,0,0,0,0,0
0,0,3743368,0.483217597,0,0.006200000178,0.4085709453,0.002745490754,9.81712532,-0.003034062684,0.001766609843,-0.003290342633,0,0,0,0,0,0,0,0,0
0,0,3753656,0.4877779484,0,0.006200000178,0.4560870826,0.008578512818,9.797392845,-0.001150811906,0.0003056717105,0.0004479920608,0,0,0,0,0,0,0,0,0
0,0,3763463,0.4924472868,0,0.006200000178,0.4706813395,-0.01728548296,9.805998802,-0.002815400017,-8.983985026e-05,-0.008082187735,0,0,0,0,0,0,0,0,0
0,0,3773594,0.4967889488,0,0.00680000009,0.4335100949,0.001717131352,9.858665466,0.006059805863,0.002808225341,0.0001114715851,0,0,0,0,0,0,0,0,0
0,0,3784201,0.5008804798,0,0.00689999992,0.4092229605,-0.02397485636,9.802473068,-0.002898010658,-4.519935828e-05,-0.001087332028,0,0,0,0,0,0,0,0,0
0,0,3793511,0.5046756268,0,0.00689999992,0.3796212673,0.02203357592,9.79897213,0.002757493872,-0.003926871344,0.001399396104,0,0,0,0,0,0,0,0,0
0,0,3803486,0.5080492496,0,0.007199999876,0.3442640007,0.03057047352,9.829206467,0.00213501323,0.00406508334,-0.008179689758,0,0,0,0,0,0,0,0,0
0,0,3813384,0.5122345686,0,0.006699999794,0.4158720076,-0.003691008547,9.754519463,-0.0004765449848,0.004462440033,-0.007161182351,0,0,0,0,0,0,0,0,0
0,0,3823438,0.5165447593,0,0.007000000216,0.4322733283,-0.0211364869,9.824608803,0.008252899162,0.001721082721,0.003752748715,0,0,0,0,0,0,0,0,0
0,0,3833435,0.5207458735,0,0.007499999832,0.4250905514,0.008970297873,9.855574608,-0.003162503708,-0.002742731245,-0.004015992396,0,0,0,0,0,0,0,0,0
0,0,3843369,0.5251970887,0,0.007400000002,0.4354596138,0.03488724306,9.781960487,0.008521949872,0.0007138954825,-0.001031712629,0,0,0,0,0,0,0,0,0
0,0,3853557,0.5289766192,0,0.007300000172,0.3854542077,0.01354650501,9.794969559,-0.0001494328317,-0.005207053386,-0.005799902137,0,0,0,0,0,0,0,0,0
0,0,3863817,0.5324909091,0,0.007499999832,0.3525168002,0.03017156012,9.816167831,0.002081438666,0.006077609956,-0.0007620843244,0,0,0,0,0,0,0,0,0
0,0,3873376,0.5362863541,0,0.007199999876,0.3788798153,0.01546558365,9.770822525,0.004501443356,0.003322589677,-0.005968316458,0,0,0,0,0,0,0,0,0
0,0,3883734,0.5398631096,0,0.007699999958,0.3592690229,0.02188021876,9.849604607,0.0003305489954,-0.006473820657,-0.0002962852304,0,0,0,0,0,0,0,0,0
0,0,3893424,0.5435644984,0,0.007799999788,0.3714974523,0.01050603855,9.806657791,0.0005216781865,0.004588917829,-0.00615563849,0,0,0,0,0,0,0,0,0
0,0,3903638,0.5479524732,0,0.007400000002,0.4356893301,-0.01855379902,9.760894775,0.008080426604,-0.002033550758,-0.0002197264403,0,0,0,0,0,0,0,0,0
0,0,3913733,0.5518407822,0,0.007199999876,0.392285198,-0.01888166741,9.783342361,-0.004150941968,0.003802812891,-0.004739081953,0,0,0,0,0,0,0,0,0
0,0,3923541,0.555917263,0,0.007100000046,0.4120858014,0.01917606592,9.792192459,0.0001160257088,-0.001199527527,-0.003169648582,0,0,0,0,0,0,0,0,0
0,0,3933353,0.5603835583,0,0.00680000009,0.4465040565,-0.01262765843,9.769630432,0.004042316228,0.002289624885,-0.001199916122,0,0,0,0,0,0,0,0,0
0,0,3943453,0.5646153688,0,0.007199999876,0.4227587283,-0.02805449255,9.836621284,-0.003936408553,-0.003781287232,-0.001908966689,0,0,0,0,0,0,0,0,0
0,0,3953356,0.568644464,0,0.00689999992,0.4078913331,-0.02190336771,9.764676094,0.002568594646,0.007153641433,-0.004389286041,0,0,0,0,0,0,0,0,0
0,0,3963349,0.5727517009,0,0.006500000134,0.406577915,-0.01399735268,9.759083748,0.01051597297,-0.001716491883,0.002086926717,0,0,0,0,0,0,0,0,0
0,0,3973415,0.5763748884,0,0.006500000134,0.3666740358,-0.003431787016,9.806563377,-0.0003787459573,-0.0008752592257,-0.005831480958,0,0,0,0,0,0,0,0,0
0,0,3983526,0.5802792311,0,0.005700000096,0.3939246833,-7.390437531e-05,9.718464851,0.004632930271,0.0001924850221,-0.006688326132,0,0,0,0,0,0,0,0,0
0,0,3993354,0.5846833587,0,0.00540000014,0.4377084672,-0.008215258829,9.767121315,0.003071653191,0.003348431084,-0.0008383056847,0,0,0,0,0,0,0,0,0
0,0,4003388,0.5894155502,0,0.006000000052,0.4756066501,0.03830908984,9.859840393,0.003350971034,0.007278833073,-0.0004730536602,0,0,0,0,0,0,0,0,0
0,0,4013340,0.5940697193,0,0.00549999997,0.4709904194,0.02515983954,9.750658035,0.007233857643,0.00448094774,-0.001844373764,0,0,0,0,0,0,0,0,0
0,0,4023335,0.5979740024,0,0.00549999997,0.3889217079,4.455574526e-05,9.797483444,0.003875596449,-0.0052900929,-0.007682810072,0,0,0,0,0,0,0,0,0
0,0,4033723,0.6015663743,0,0.006099999882,0.3611760139,0.03362969682,9.855413437,0.001962148119,0.001309525804,0.003847196,0,0,0,0,0,0,0,0,0
0,0,4043440,0.6054705977,0,0.00549999997,0.3904908299,-0.007783399429,9.741028786,-8.989567141e-05,0.004324881826,-0.004846299067,0,0,0,0,0,0,0,0,0
0,0,4053648,0.6094688177,0,0.006000000052,0.4006762803,0.01461277436,9.850101471,0.005306491163,0.001917737187,-0.007832396775,0,0,0,0,0,0,0,0,0
0,0,4063288,0.6137176156,0,0.00689999992,0.4213396907,0.04740209132,9.887385368,0.004409282003,0.001710353536,0.0003432506055,0,0,0,0,0,0,0,0,0
0,0,4073564,0.6177158952,0,0.007100000046,0.4085191488,0.01063727308,9.823774338,0.00267823413,0.002535507549,0.0008257503505,0,0,0,0,0,0,0,0,0
0,0,4083746,0.6212927699,0,0.007699999958,0.3620247245,0.02190049551,9.859838486,0.004930468742,0.00218801829,-0.0002108413173,0,0,0,0,0,0,0,0,0
0,0,4093394,0.6253393888,0,0.00810000021,0.4041898847,0.05772356316,9.836643219,0.002754628425,0.002917495091,-0.002103626728,0,0,0,0,0,0,0,0,0
0,0,4103422,0.629697144,0,0.008500000462,0.4387144148,0.01855415478,9.839682579,0.004543205723,0.000675971387,-0.001449566567,0,0,0,0,0,0,0,0,0
0,0,4113359,0.6335228682,0,0.009200000204,0.3825784326,-0.004758527968,9.869674683,0.0004202576529,0.007891424932,-0.008876672015,0,0,0,0,0,0,0,0,0
0,0,4123412,0.6376779675,0,0.009499999695,0.4136296511,0.02765488625,9.833502769,0.002596919192,-0.006786692888,0.001394421794,0,0,0,0,0,0,0,0,0
0,0,4133360,0.6414738894,0,0.009399999864,0.391639024,0.02409488149,9.790409088,0.006124996115,0.001820858568,-0.002230648883,0,0,0,0,0,0,0,0,0
0,0,4143345,0.6455049515,0,0.009899999946,0.3941671252,0.04196210578,9.849070549,0.00800483115,-0.0005525284796,-0.002160414588,0,0,0,0,0,0,0,0,0
0,0,4153393,0.6498466134,0,0.009899999946,0.432202816,0.003913046792,9.795352936,0.001903374563,0.003000245895,0.002938960679,0,0,0,0,0,0,0,0,0
0,0,4163769,0.6541557312,0,0.0103000002,0.4389077127,-0.02382991277,9.837509155,0.005971365608,-7.355344133e-05,-0.005031250417,0,0,0,0,0,0,0,0,0
0,0,4173332,0.6585136652,0,0.01099999994,0.4414315224,0.01450484712,9.875098228,0.00584433414,-0.001098459121,0.002530325204,0,0,0,0,0,0,0,0,0
0,0,4183659,0.6628553271,0,0.01099999994,0.4311646223,0.007126232143,9.794903755,0.003466522554,0.001576962764,-0.007306915242,0,0,0,0,0,0,0,0,0
0,0,4193353,0.6669322848,0,0.01130000036,0.4097722173,0.02278075553,9.835035324,0.006012850907,-0.0009983394993,0.003184233792,0,0,0,0,0,0,0,0,0
0,0,4203564,0.6708037257,0,0.01140000019,0.394433707,-0.02906364761,9.805956841,0.007946179248,-0.00197730423,-0.007246612571,0,0,0,0,0,0,0,0,0
0,0,4213422,0.6750507951,0,0.01080000028,0.4208321571,-0.02312548272,9.739169121,0.004817577545,0.003679047804,0.001074501663,0,0,0,0,0,0,0,0,0
0,0,4223458,0.6788143516,0,0.01159999985,0.3821720481,-0.004346727859,9.880602837,0.00837643072,0.0002972629445,-0.002823216375,0,0,0,0,0,0,0,0,0
0,0,4233380,0.682921052,0,0.0120000001,0.4120919704,-0.01197721343,9.837910652,0.004580451641,0.00187708158,-0.0001921649964,0,0,0,0,0,0,0,0,0
0,0,4243380,0.6869334579,0,0.01180000044,0.4054821134,-0.03052821755,9.775165558,0.009561747313,-0.001522700186,-0.005157148466,0,0,0,0,0,0,0,0,0
0,0,4253328,0.6907131076,0,0.01209999993,0.3728887141,0.005765183363,9.835712433,0.008415108547,0.002681490965,-0.006562130526,0,0,0,0,0,0,0,0,0
0,0,4263407,0.6946331859,0,0.01250000019,0.3968345523,0.006351541262,9.832172394,0.001789497444,-0.001387267956,0.0002220058668,0,0,0,0,0,0,0,0,0
0,0,4273368,0.6984270215,0,0.01269999985,0.3837462366,-0.03801106662,9.826271057,0.005851394963,-0.0009716378408,-0.0006064636982,0,0,0,0,0,0,0,0,0
0,0,4283360,0.7020804882,0,0.0131000001,0.3605967164,-0.03472093865,9.834993362,0.00262721465,-0.005793895572,-0.003251371672,0,0,0,0,0,0,0,0,0
0,0,4293821,0.7057818174,0,0.01290000044,0.3766142428,-0.002594072837,9.779186249,0.005266427994,0.006241241936,-0.007202397566,0,0,0,0,0,0,0,0,0
0,0,4303435,0.7093426585,0,0.01300000027,0.3581047952,0.009291742928,9.808283806,0.008720577694,-0.001492676442,-0.0002454393834,0,0,0,0,0,0,0,0,0
0,0,4314104,0.7128252983,0,0.01300000027,0.3460025787,0.005123435054,9.806629181,0.002901365748,0.002081095707,-0.004972898401,0,0,0,0,0,0,0,0,0
0,0,4323379,0.7167759538,0,0.01279999968,0.3927188516,-0.03566195443,9.777181625,0.003431036836,-0.000484242104,-0.004838976543,0,0,0,0,0,0,0,0,0
0,0,4333616,0.720554769,0,0.0131000001,0.3818341196,-0.05857903138,9.831593513,-0.00177685672,-0.000298560044,-0.001383669791,0,0,0,0,0,0,0,0,0
0,0,4343378,0.7246462703,0,0.01370000001,0.4100560844,-0.02047325112,9.855995178,0.00536360871,-0.001802534913,-0.001592849498,0,0,0,0,0,0,0,0,0
0,0,4353522,0.7286599278,0,0.01350000035,0.402250886,-0.03274149448,9.777346611,0.007868342102,-0.001098742359,-0.003706987947,0,0,0,0,0,0,0,0,0
0,0,4363462,0.731955409,0,0.01339999959,0.3278317153,-0.04856935889,9.793599129,0.003722781781,-0.001188885537,-0.0057198992,0,0,0,0,0,0,0,0,0
0,0,4373429,0.7355006337,0,0.0131000001,0.3544920981,-0.006712443661,9.769701004,0.004283246119,0.002952162642,0.002989371074,0,0,0,0,0,0,0,0,0
0,0,4383492,0.7394676208,0,0.01290000044,0.3963934183,-0.01304984093,9.78259182,0.0004517078632,-0.004338901024,-0.0007691535284,0,0,0,0,0,0,0,0,0
0,0,4393415,0.7432469726,0,0.01300000027,0.3893073499,0.007371542975,9.808977127,0.009167947806,0.001357114175,-0.003550658002,0,0,0,0,0,0,0,0,0
0,0,4403542,0.7473545074,0,0.01229999959,0.4031744897,-0.01070985012,9.726626396,0.003837845754,0.001227563596,-0.007948372513,0,0,0,0,0,0,0,0,0
0,0,4413627,0.7512744069,0,0.01190000027,0.4002254009,0.005628572311,9.756118774,0.004182726145,0.002907101763,-0.00119455508,0,0,0,0,0,0,0,0,0
0,0,4423416,0.7553657889,0,0.01159999985,0.4088898599,0.04041738808,9.775072098,0.001335591427,-0.001086942037,-0.002470395295,0,0,0,0,0,0,0,0,0
0,0,4433329,0.7595354915,0,0.01070000045,0.4222897291,0.03476202115,9.705194473,0.003807981731,0.0006048950017,-0.003514964832,0,0,0,0,0,0,0,0,0
0,0,4443771,0.7638302445,0,0.01049999986,0.4293300807,0.02398167178,9.78422451,-0.0003769092145,-9.955083078e-05,-0.001364415279,0,0,0,0,0,0,0,0,0
0,0,4453391,0.7680470347,0,0.0103000002,0.41921404,0.02422297746,9.776013374,0.000950647227,0.002409120323,-0.004648366012,0,0,0,0,0,0,0,0,0
0,0,4463667,0.7716858983,0,0.009399999864,0.3705100715,0.01070293691,9.707409859,-0.0004798313603,0.009902160615,0.004114691168,0,0,0,0,0,0,0,0,0
0,0,4473346,0.7749187946,0,0.009700000286,0.3198926747,0.03325625509,9.833292007,0.002823507646,-0.003887336235,-0.001489335787,0,0,0,0,0,0,0,0,0
0,0,4483575,0.7784795761,0,0.009700000286,0.3523822427,-0.0005935216905,9.798657417,0.002440628596,0.004037677776,-0.00862831343,0,0,0,0,0,0,0,0,0
0,0,4493341,0.7823681831,0,0.009100000374,0.3951613009,-0.02181521431,9.738213539,-0.001155952807,0.001710564131,-0.001682808273,0,0,0,0,0,0,0,0,0
0,0,4503472,0.7862100601,0,0.009399999864,0.3809945881,0.00203896407,9.836748123,0.002655341988,0.006447085179,0.001888372819,0,0,0,0,0,0,0,0,0
0,0,4513346,0.7901768088,0,0.009800000116,0.4032570422,-0.0108189974,9.838027,0.003889878979,0.003488338785,-0.003938798327,0,0,0,0,0,0,0,0,0
0,0,4523456,0.7935657501,0,0.009600000456,0.342284292,-0.02174561843,9.779845238,-0.0004321880115,0.005256976932,0.0008548137266,0,0,0,0,0,0,0,0,0
0,0,4533359,0.7964081168,0,0.009700000286,0.2788582742,-0.003040127689,9.811333656,0.008508357219,0.002536886837,-0.003224601969,0,0,0,0,0,0,0,0,0
0,0,4543407,0.7994222641,0,0.009499999695,0.3060885966,0.02925616875,9.773147583,-0.001607638202,0.0007211370976,-0.004774972331,0,0,0,0,0,0,0,0,0
0,0,4553350,0.8027333617,0,0.009999999776,0.3341844678,0.03624019027,9.855373383,0.003162674373,0.006071249954,0.002768612234,0,0,0,0,0,0,0,0,0
0,0,4563351,0.8060754538,0,0.0103000002,0.3340886533,-0.004739799071,9.821475029,0.001339914626,0.008028537035,-0.007292916067,0,0,0,0,0,0,0,0,0
0,0,4573717,0.8096362948,0,0.01059999969,0.3537870944,0.008090480231,9.837086678,0.009980104864,0.0006117929006,-2.474696339e-05,0,0,0,0,0,0,0,0,0
0,0,4583488,0.8126348257,0,0.01130000036,0.3083447814,0.01386163477,9.871946335,0.002917886479,0.002414971124,-0.002852324164,0,0,0,0,0,0,0,0,0
0,0,4593745,0.8160559535,0,0.01150000002,0.3476266563,0.06538189203,9.816366196,0.003678536974,0.009931896813,-0.002979713725,0,0,0,0,0,0,0,0,0
0,0,4603494,0.8199454546,0,0.01180000044,0.385394156,0.04071072862,9.830023766,0.007476275321,-0.002055955585,-0.002199830022,0,0,0,0,0,0,0,0,0
0,0,4613638,0.8238033056,0,0.01219999976,0.3895335197,0.02206042223,9.839798927,0.004374820273,0.00429204572,-0.005134334322,0,0,0,0,0,0,0,0,0
0,0,4623345,0.8278016448,0,0.01190000027,0.4019629061,0.01002420299,9.772577286,0.002096151467,0.006874979008,0.001307252678,0,0,0,0,0,0,0,0,0
0,0,4633555,0.831394434,0,0.01219999976,0.3556665778,0.03237167746,9.821789742,0.00682298746,-0.0004704014573,-0.001004024176,0,0,0,0,0,0,0,0,0
0,0,4643432,0.8346903324,0,0.01269999985,0.3378857672,0.02490807883,9.855027199,0.00819907058,0.004840264563,-0.003016302362,0,0,0,0,0,0,0,0,0
0,0,4653437,0.8384538889,0,0.01269999985,0.3773740828,-0.009363564663,9.798956871,0.004149758723,0.0100757638,-0.003146583447,0,0,0,0,0,0,0,0,0
0,0,4663399,0.8425928354,0,0.01350000035,0.4141320586,0.01436706446,9.883974075,0.007908177562,0.0008168353233,-0.002622978063,0,0,0,0,0,0,0,0,0
0,0,4673364,0.8469827771,0,0.01420000009,0.4421931803,0.03730718419,9.861599922,0.005803328939,0.001121552545,-0.001060042996,0,0,0,0,0,0,0,0,0
0,0,4683336,0.8508407474,0,0.01429999992,0.3869578242,0.02114224434,9.819038391,0.01136046648,0.006807534024,-0.0001284068567,0,0,0,0,0,0,0,0,0
0,0,4693427,0.854136765,0,0.01510000043,0.3275449276,0.01285321917,9.871403694,0.00426082639,-0.004534117877,-0.0002567756455,0,0,0,0,0,0,0,0,0
0,0,4703338,0.8575273752,0,0.01569999941,0.346604526,0.04837763309,9.860072136,0.004812669009,0.002816483844,-0.007157117594,0,0,0,0,0,0,0,0,0
0,0,4714046,0.8614639044,0,0.01600000076,0.3835161626,0.01967955381,9.833640099,0.003580034478,-0.001280048513,-5.325424809e-06,0,0,0,0,0,0,0,0,0
0,0,4723781,0.8649300933,0,0.01700000092,0.3534385264,-0.02021095157,9.900030136,0.003218621248,0.001748429611,0.0004403078347,0,0,0,0,0,0,0,0,0
0,0,4733401,0.8683801889,0,0.01799999923,0.3522615433,-0.02572548389,9.896546364,0.01097974554,0.001968284836,-0.003040271811,0,0,0,0,0,0,0,0,0
0,0,4743705,0.871579349,0,0.01850000024,0.3177800477,-0.06222225726,9.857962608,0.004285489675,-0.002991619054,-0.001732164295,0,0,0,0,0,0,0,0,0
0,0,4753381,0.875045836,0,0.0186999999,0.3423855007,-0.01728793606,9.820096016,0.006477186456,0.003264344065,-0.005379025359,0,0,0,0,0,0,0,0,0
0,0,4763581,0.8792148829,0,0.01860000007,0.4259441495,-0.02343843691,9.788629532,0.007620654069,-0.005686030723,-0.0001969326404,0,0,0,0,0,0,0,0,0
0,0,4773323,0.8835549951,0,0.01920000091,0.43473804,-0.06184309721,9.855388641,0.009078419767,0.00201707962,0.0005156387342,0,0,0,0,0,0,0,0,0
0,0,4784215,0.8878173828,0,0.01889999956,0.4200731516,-0.06649462134,9.771654129,0.002993150847,-0.003772133263,-0.007429822348,0,0,0,0,0,0,0,0,0
0,0,4793423,0.8916276693,0,0.0178999994,0.3859750628,-0.02777719311,9.695293427,0.007743285038,0.00136034796,-0.001038023969,0,0,0,0,0,0,0,0,0
0,0,4803420,0.8952508569,0,0.01740000024,0.3688817322,-0.004916109145,9.751564026,0.01053541433,-0.00280157011,-0.004957655445,0,0,0,0,0,0,0,0,0
0,0,4813415,0.8996707201,0,0.01649999991,0.4352796078,0.01148809586,9.708135605,0.01730197109,-0.005812125746,-0.003910431173,0,0,0,0,0,0,0,0,0
0,0,4823390,0.9042618871,0,0.01510000043,0.4623287916,-0.02647227794,9.663567543,-0.0009192636935,0.004048167262,-0.0002404046681,0,0,0,0,0,0,0,0,0
0,0,4833447,0.9090723991,0,0.01489999983,0.4792525172,0.04072638974,9.780388832,0.009353560396,-0.002898403909,-0.001152201439,0,0,0,0,0,0,0,0,0
0,0,4843395,0.91385144,0,0.01400000043,0.4817277491,0.01456448529,9.705410957,0.002722724341,-0.004560372327,-0.01088223699,0,0,0,0,0,0,0,0,0
0,0,4853846,0.918100059,0,0.01319999993,0.4313185215,0.03505655751,9.727318764,0.009085269645,0.002408247208,0.001574556227,0,0,0,0,0,0,0,0,0
0,0,4863441,0.9225053191,0,0.01229999959,0.4464966953,0.05997398123,9.705727577,0.006284544244,0.0009517587023,-0.001485280576,0,0,0,0,0,0,0,0,0
0,0,4873759,0.927270174,0,0.01099999994,0.4711498618,0.05780771002,9.669092178,0.007454840466,-0.002406539628,-0.00159418385,0,0,0,0,0,0,0,0,0
0,0,4883476,0.9315518141,0,0.01049999986,0.438862592,0.06967892498,9.745625496,0.003646319034,-0.002601251006,-0.005452462938,0,0,0,0,0,0,0,0,0
0,0,4893654,0.9361770749,0,0.01009999961,0.4613804221,0.06370306015,9.759297371,0.004018503707,-0.004665498156,0.0005143474555,0,0,0,0,0,0,0,0,0
0,0,4903319,0.9405350089,0,0.008899999782,0.438051194,0.02362036891,9.685712814,0.009499136358,0.007755477913,0.0003002786543,0,0,0,0,0,0,0,0,0
0,0,4913594,0.9447850585,0,0.007899999619,0.4267544746,0.03440083563,9.699668884,0.0005174055113,-0.001623393851,-0.002463632263,0,0,0,0,0,0,0,0,0
0,0,4923397,0.9495351315,0,0.006599999964,0.4752933681,0.04626975954,9.664434433,0.002975081792,0.003897046205,-0.00166544877,0,0,0,0,0,0,0,0,0
0,0,4933459,0.9541249275,0,0.00549999997,0.4669369459,-0.02373733185,9.689120293,0.00915428903,0.006050125696,-0.001367910765,0,0,0,0,0,0,0,0,0
0,0,4943385,0.9585257173,0,0.004600000102,0.4439348578,-0.07183216512,9.710731506,0.006258365698,-0.001827005879,-0.002701168181,0,0,0,0,0,0,0,0,0
0,0,4953415,0.9629915953,0,0.003599999938,0.4421299696,-0.01401381101,9.70506382,0.008680384606,-0.0007642332348,0.003137239022,0,0,0,0,0,0,0,0,0
0,0,4963334,0.9671441913,0,0.00270000007,0.4216954708,-0.04072150216,9.705282211,0.01027929131,0.005552178249,-0.002949607326,0,0,0,0,0,0,0,0,0
0,0,4973327,0.9716563225,0,0.00159999996,0.4499920011,-0.03613663465,9.687790871,0.006181450095,0.003708485514,-0.003602250479,0,0,0,0,0,0,0,0,0
0,0,4983889,0.9761063457,0,0.0003999999899,0.4498104453,-0.03166063875,9.681921005,0.007447432727,0.00616851449,0.003900484182,0,0,0,0,0,0,0,0,0
0,0,4993350,0.9802594185,0,9.999999747e-05,0.4128059447,-0.03479962423,9.772153854,0.004804410972,0.003319279756,-0.004407291301,0,0,0,0,0,0,0,0,0
0,0,5003809,0.9845531583,0,-0.0005000000237,0.4366779625,-0.0394703187,9.738996506,0.002464922844,0.001300632372,-0.001497768448,0,0,0,0,0,0,0,0,0
0,0,5013386,0.9888777137,0,-0.0007999999798,0.4323467016,-0.07912451029,9.770640373,0.01125155855,0.005404832773,-0.0004491161671,0,0,0,0,0,0,0,0,0
0,0,5023707,0.9932028651,0,-0.0008999999845,0.4339992702,-0.07255326211,9.786457062,0.0008232848486,0.007200177759,0.00197470095,0,0,0,0,0,0,0,0,0
0,0,5033421,0.9977629185,0,-0.001500000013,0.4659236372,-0.06286454946,9.740816116,0.003695530118,0.003328298917,-0.007421703544,0,0,0,0,0,0,0,0,0
0,0,5043611,1.00210464,0,-0.001900000032,0.4335031807,-0.05736743286,9.764448166,0.006361913867,0.000495174143,-0.0005452120677,0,0,0,0,0,0,0,0,0
0,0,5053387,1.006212234,0,-0.001900000032,0.4079457223,-0.02457288466,9.796652794,0.006460785866,0.006603751332,-0.003064183053,0,0,0,0,0,0,0,0,0
0,0,5063519,1.010320425,0,-0.002099999925,0.4239691198,-0.08390777558,9.778369904,0.00389023195,0.008588191122,-0.002840767615,0,0,0,0,0,0,0,0,0
0,0,5073354,1.01453793,0,-0.002300000051,0.4196826816,-0.04213231057,9.78397274,-0.003981469199,0.00173585827,-0.00514038885,0,0,0,0,0,0,0,0,0
0,0,5083430,1.018925667,0,-0.001900000032,0.4338108301,0.04000968114,9.835700035,0.007827704772,0.002894787118,0.0006448556087,0,0,0,0,0,0,0,0,0
0,0,5093357,1.023221016,0,-0.00139999995,0.4390217662,-0.04113579914,9.846513748,0.002584793838,0.006607342511,-0.003988190554,0,0,0,0,0,0,0,0,0
0,0,5103431,1.027250767,0,-0.0005000000237,0.4037117958,-0.02564873174,9.896528244,0.0009764981223,0.005317403935,0.0009336852818,0,0,0,0,0,0,0,0,0
0,0,5113422,1.031233191,0,-0.0003000000142,0.3923658729,0.002667773049,9.816817284,-0.00193454104,0.002517693443,-0.006733503658,0,0,0,0,0,0,0,0,0
0,0,5123375,1.035105824,0,-0.0005000000237,0.392772764,0.01703443564,9.784815788,6.779577961e-05,0.007277491968,0.0005717664026,0,0,0,0,0,0,0,0,0
0,0,5133413,1.038743615,0,0.0003999999899,0.3663326502,0.07969345152,9.885327339,-0.00124263484,0.00666162651,-0.001880342839,0,0,0,0,0,0,0,0,0
0,0,5143411,1.042319775,0,0.001300000004,0.3627584875,0.01840669848,9.891903877,0.002020847518,0.001519540558,0.002328705974,0,0,0,0,0,0,0,0,0
0,0,5153380,1.046052098,0,0.00270000007,0.3769824803,0.02347355522,9.937129021,-0.002619223436,0.003019752679,0.0023198626,0,0,0,0,0,0,0,0,0
0,0,5163342,1.049831271,0,0.00419999985,0.3747977614,0.07575620711,9.951835632,-0.001506809262,0.007353252731,-0.0007928438717,0,0,0,0,0,0,0,0,0
0,0,5173668,1.053376555,0,0.005799999926,0.3531988561,0.0534642078,9.961773872,0.001758286962,0.003574801376,-0.002029537456,0,0,0,0,0,0,0,0,0
0,0,5183492,1.056610227,0,0.007300000172,0.3267704844,0.08682074398,9.947640419,0.007655800786,0.007949760184,-0.001380229136,0,0,0,0,0,0,0,0,0
0,0,5193594,1.060218573,0,0.007499999832,0.3574413359,0.04685385525,9.815489769,-0.004298630636,0.0008155939868,0.002064262517,0,0,0,0,0,0,0,0,0
0,0,5203389,1.063249111,0,0.0083999997,0.314086616,0.03595627844,9.892149925,0.005247502122,0.004438556731,-0.001772212563,0,0,0,0,0,0,0,0,0
0,0,5213478,1.066406012,0,0.009999999776,0.317828536,0.07977252454,9.963159561,-0.004522224888,0.00154210208,0.005253256764,0,0,0,0,0,0,0,0,0
0,0,5223644,1.069545388,0,0.01090000011,0.3117321134,0.0182411205,9.882182121,0.004639579449,0.001454440295,0.004829472862,0,0,0,0,0,0,0,0,0
0,0,5233387,1.072590351,0,0.0111999996,0.306361407,-0.02168253809,9.836205482,0.009036452509,0.008871723898,0.00315189478,0,0,0,0,0,0,0,0,0
0,0,5243387,1.076231599,0,0.0120000001,0.3630441129,0.07379858941,9.874052048,0.007248884067,0.004585317336,0.0002711934503,0,0,0,0,0,0,0,0,0
0,0,5253340,1.080154181,0,0.01190000027,0.3982837796,0.06878084689,9.788441658,0.004604533315,0.0024004234,0.005804657005,0,0,0,0,0,0,0,0,0
0,0,5263398,1.083669186,0,0.01209999993,0.3456586301,0.02737722173,9.826936722,0.007262163796,0.002628061222,0.006312414072,0,0,0,0,0,0,0,0,0
0,0,5273338,1.087138414,0,0.01209999993,0.3555820882,0.03975892439,9.800401688,0.0006864612806,0.00296752248,0.009783347137,0,0,0,0,0,0,0,0,0
0,0,5283815,1.090575099,0,0.01140000019,0.3400584757,0.01826149039,9.721430779,0.008852767758,0.001832706039,-0.005074858665,0,0,0,0,0,0,0,0,0
0,0,5293467,1.093854904,0,0.01090000011,0.3370323181,0.006006184965,9.757293701,0.0099677369,0.001695507206,-0.001702258014,0,0,0,0,0,0,0,0,0
0,0,5303723,1.097510576,0,0.01040000003,0.368132621,0.01448907889,9.749729156,0.01090271585,0.00234002457,0.001639654627,0,0,0,0,0,0,0,0,0
0,0,5313516,1.10131979,0,0.01020000037,0.3837343156,-0.01760677062,9.775417328,0.008905799128,0.01217084099,0.009565148503,0,0,0,0,0,0,0,0,0
0,0,5323636,1.104972243,0,0.009899999946,0.3642905056,-0.04731651023,9.766366005,0.003773822682,0.001946627861,-0.00296383258,0,0,0,0,0,0,0,0,0
0,0,5333379,1.109032869,0,0.009700000286,0.4131757319,0.001285737264,9.781855583,0.006784942932,0.007431817707,0.003202051856,0,0,0,0,0,0,0,0,0
0,0,5343542,1.112920642,0,0.009800000116,0.3901871443,-0.02015797421,9.815478325,0.01539233793,0.0003735288919,-0.0004579467641,0,0,0,0,0,0,0,0,0
0,0,5353462,1.116870522,0,0.009300000034,0.3962619007,-0.02636813372,9.747716904,0.01620167308,0.005609056447,0.001778893056,0,0,0,0,0,0,0,0,0
0,0,5363447,1.120898843,0,0.008500000462,0.4153679013,-0.02609551139,9.713809967,0.007287443615,0.004625851288,-0.00773152383,0,0,0,0,0,0,0,0,0
0,0,5373402,1.124851346,0,0.009200000204,0.3885436654,0.03027051874,9.876410484,0.01432842202,0.001470508054,0.004487452097,0,0,0,0,0,0,0,0,0
0,0,5383484,1.128396153,0,0.009899999946,0.3576377034,-0.008804191835,9.865287781,0.01179008465,0.007774151396,-0.004050713498,0,0,0,0,0,0,0,0,0
0,0,5393659,1.131986856,0,0.01020000037,0.3698939085,-0.0362419188,9.835954666,0.01657114737,0.00686874846,-0.0001883633668,0,0,0,0,0,0,0,0,0
0,0,5403334,1.135579944,0,0.01099999994,0.3521263897,0.03360389918,9.873666763,0.01170370448,0.0009070441592,-0.004710750189,0,0,0,0,0,0,0,0,0
0,0,5413406,1.139454126,0,0.01150000002,0.3914625049,0.03353001177,9.855016708,0.01680965163,0.001615215791,-0.005868225358,0,0,0,0,0,0,0,0,0
0,0,5423318,1.143420339,0,0.01219999976,0.4113250375,-0.02529904246,9.863369942,0.015012783,0.002870834665,-0.004476244096,0,0,0,0,0,0,0,0,0
0,0,5433784,1.147232413,0,0.01269999985,0.3704660237,0.03681992367,9.851963043,0.01349403989,0.00934916921,-0.002696817741,0,0,0,0,0,0,0,0,0
0,0,5443359,1.151028514,0,0.01339999959,0.3818458319,0.02266264334,9.866909027,0.02531601489,-0.002541218186,-0.001111319172,0,0,0,0,0,0,0,0,0
0,0,5453675,1.154324651,0,0.01360000018,0.3313542008,0.02369161695,9.821333885,0.01577513851,0.003341358388,-0.002900760388,0,0,0,0,0,0,0,0,0
0,0,5463412,1.158153296,0,0.01400000043,0.3847209215,0.05151778087,9.842616081,0.01540413871,-0.002833376871,-0.006629562005,0,0,0,0,0,0,0,0,0
0,0,5473596,1.162511349,0,0.01439999975,0.4392547011,0.01062830072,9.833572388,0.02134560421,-0.001843687147,-0.00104432879,0,0,0,0,0,0,0,0,0
0,0,5483427,1.166447878,0,0.0148,0.3965105712,0.02093566768,9.844970703,0.01595196128,0.002935571596,-0.002291063312,0,0,0,0,0,0,0,0,0
0,0,5493502,1.170528769,0,0.01549999975,0.4117442071,0.08346394449,9.864836693,0.01490561292,-0.003309646854,-0.006951922551,0,0,0,0,0,0,0,0,0
0,0,5503399,1.174527526,0,0.01579999924,0.3976930678,0.01644010842,9.831055641,0.02256574482,-0.001772933756,0.002865040209,0,0,0,0,0,0,0,0,0
0,0,5513575,1.178104877,0,0.01630000025,0.361097455,0.01047510747,9.847977638,0.01541791856,-0.00605506124,-0.001539682271,0,0,0,0,0,0,0,0,0
0,0,5523391,1.182182193,0,0.01610000059,0.4052171111,0.01830171607,9.778695107,0.0189763885,-0.003666087985,0.0007726514596,0,0,0,0,0,0,0,0,0
0,0,5533520,1.186490774,0,0.01590000093,0.4283017814,-0.02015808038,9.782915115,0.01259057131,-0.002087258501,-8.404070832e-05,0,0,0,0,0,0,0,0,0
0,0,5543346,1.190316081,0,0.01590000093,0.3896180093,-0.02153573744,9.80402565,0.0161747206,-0.009490017779,-0.0009311251924,0,0,0,0,0,0,0,0,0
0,0,5553554,1.194467902,0,0.01510000043,0.4208085835,-0.03844014555,9.712842941,0.00901276432,-0.004563647788,0.001523447805,0,0,0,0,0,0,0,0,0
0,0,5563331,1.198525071,0,0.01510000043,0.4056370854,-0.06543190777,9.800085068,0.007478713058,-0.0004855824227,0.0002854169288,0,0,0,0,0,0,0,0,0
0,0,5573307,1.20291245,0,0.0148,0.4520917833,-0.02130652778,9.774897575,0.01779327914,-0.007568209898,-0.006981933024,0,0,0,0,0,0,0,0,0
0,0,5583759,1.207362056,0,0.01420000009,0.4379689097,-0.0316478163,9.742835999,0.008832837455,-0.009481643327,0.01017826237,0,0,0,0,0,0,0,0,0
0,0,5593391,1.211011887,0,0.01410000026,0.3660910726,-0.1023575217,9.786148071,0.003580479417,-0.00737468712,-0.004474097863,0,0,0,0,0,0,0,0,0
0,0,5603658,1.215148449,0,0.01319999993,0.4237242043,-0.05987741426,9.707373619,0.005614656489,-0.005946641788,0.00119744835,0,0,0,0,0,0,0,0,0
0,0,5613454,1.219174981,0,0.01130000036,0.4025825262,-0.08945570886,9.612500191,0.006124880165,-0.002386878477,-0.001074083964,0,0,0,0,0,0,0,0,0
0,0,5623557,1.223155856,0,0.009800000116,0.4042031169,-0.05990963802,9.653511047,0.005283267703,-0.007251269184,0.006069322582,0,0,0,0,0,0,0,0,0
0,0,5633328,1.22743392,0,0.008600000292,0.4259021878,-0.06174755841,9.675642014,-0.001819033991,-0.007246398367,0.002077143406,0,0,0,0,0,0,0,0,0
0,0,5643471,1.231758833,0,0.007400000002,0.4382970631,-0.0741103664,9.684239388,0.008486082777,0.00383456354,0.005480394233,0,0,0,0,0,0,0,0,0
0,0,5653330,1.236412525,0,0.00689999992,0.4635905325,-0.04169488326,9.743026733,0.006728693843,-0.003567858133,-0.001987250289,0,0,0,0,0,0,0,0,0
0,0,5663363,1.240691662,0,0.005700000096,0.440493077,0.00341965491,9.6792593,0.003438215703,-0.001247995417,0.002728988882,0,0,0,0,0,0,0,0,0
0,0,5673382,1.244455457,0,0.004600000102,0.3683030903,-0.0008334008744,9.696936607,0.009644604288,-0.000885178044,0.003583763493,0,0,0,0,0,0,0,0,0
0,0,5683331,1.248172522,0,0.003199999919,0.3772518039,0.009632415138,9.658070564,0.008598839864,0.0002023122506,-0.004339575302,0,0,0,0,0,0,0,0,0
0,0,5693342,1.252248883,0,0.002000000095,0.4147046506,0.01575510576,9.677261353,-0.0008927510353,-0.001402759342,0.002957255812,0,0,0,0,0,0,0,0,0
0,0,5703400,1.256325126,0,0.001900000032,0.4046832323,0.01531961374,9.793222427,0.004107363988,-0.0008107649628,0.005271813832,0,0,0,0,0,0,0,0,0
0,0,5713436,1.260479808,0,0.00159999996,0.4136015177,0.03474842384,9.76463604,0.007355291396,-0.001942156814,0.003451538039,0,0,0,0,0,0,0,0,0
0,0,5723363,1.264431477,0,0.001000000047,0.3962677717,0.02477060445,9.740629196,0.01038802508,0.001419766922,-0.001846184023,0,0,0,0,0,0,0,0,0
0,0,5733707,1.268790364,0,0.0003999999899,0.4388149977,0.08355962485,9.737343788,0.006130632944,0.004854359664,-0.0001324081968,0,0,0,0,0,0,0,0,0
0,0,5743372,1.273400545,0,-0.0003999999899,0.4622912109,0.1124300212,9.721136093,0.005444058217,0.002057298319,0.005957780872,0,0,0,0,0,0,0,0,0
0,0,5753608,1.277620077,0,-0.0007999999798,0.4312883914,0.07253911346,9.75916481,0.008151157759,0.001336123445,-0.0002467681479,0,0,0,0,0,0,0,0,0
0,0,5763393,1.281605005,0,-0.001500000013,0.3958808482,0.0649074465,9.72776413,0.002194585046,0.005636082496,0.001226365566,0,0,0,0,0,0,0,0,0
0,0,5773527,1.285371423,0,-0.002300000051,0.3735958338,0.0520956628,9.727489471,0.000943622319,-0.002103816252,0.005982076284,0,0,0,0,0,0,0,0,0
0,0,5784183,1.288997531,0,-0.002099999925,0.3677794039,0.06309369951,9.813318253,0.006657499354,0.006368251517,0.005041901954,0,0,0,0,0,0,0,0,0
0,0,5793449,1.293185711,0,-0.00270000007,0.4254108071,0.05287396535,9.743453979,0.01167572103,0.007062770426,0.0009677308262,0,0,0,0,0,0,0,0,0
0,0,5803455,1.297184467,0,-0.003100000089,0.4006114304,0.01358077768,9.758817673,0.01160388812,0.0003432825324,0.001370053738,0,0,0,0,0,0,0,0,0
0,0,5813417,1.300559282,0,-0.002400000114,0.3414652646,0.01701254025,9.870933533,0.0101513844,0.003273104085,0.001903150463,0,0,0,0,0,0,0,0,0
0,0,5823351,1.304215074,0,-0.001200000057,0.3648069501,0.02646819688,9.913743973,0.01424701791,0.008766586892,0.002813244704,0,0,0,0,0,0,0,0,0
0,0,5833452,1.307854414,0,-0.0001999999949,0.3643623888,0.01184683293,9.902933121,0.01582425833,0.00495748315,0.001253754366,0,0,0,0,0,0,0,0,0
0,0,5843863,1.311621666,0,0.000699999975,0.384360522,0.05789633095,9.890094757,0.01492940821,-0.002482284326,0.0001610214968,0,0,0,0,0,0,0,0,0
0,0,5853432,1.315343976,0,0.001799999969,0.3695162833,0.07754926383,9.913092613,0.01614921167,0.004456948955,0.002314452315,0,0,0,0,0,0,0,0,0
0,0,5863769,1.31855011,0,0.003000000026,0.3226558566,0.06383479387,9.916171074,0.01959968358,0.005610689986,0.0001129657976,0,0,0,0,0,0,0,0,0
0,0,5873390,1.321616173,0,0.003899999894,0.3199464381,0.06791712344,9.894984245,0.01787558012,-0.001007137005,0.0009663442033,0,0,0,0,0,0,0,0,0
0,0,5883668,1.32516551,0,0.004300000146,0.3553132415,0.04748798907,9.83863163,0.01407250669,0.004152175505,0.003657947993,0,0,0,0,0,0,0,0,0
0,0,5893407,1.328962326,0,0.005200000014,0.3704352081,0.02450651117,9.883743286,0.01392207481,-0.0003519495076,-0.002470013453,0,0,0,0,0,0,0,0,0
0,0,5903568,1.333320737,0,0.006000000052,0.4462897182,0.01038495637,9.883114815,0.01474312413,0.000392915681,-0.0006115554133,0,0,0,0,0,0,0,0,0
0,0,5913370,1.337887645,0,0.007100000046,0.4623385668,-0.1064518318,9.904808044,0.009921964258,0.00352711603,-0.00243620039,0,0,0,0,0,0,0,0,0
0,0,5923497,1.342079401,0,0.007600000128,0.4158816636,-0.1171009168,9.849886894,0.00736417342,0.004366953857,-0.0008326240932,0,0,0,0,0,0,0,0,0
0,0,5933371,1.345661283,0,0.007799999788,0.3756245375,-0.1686731726,9.827734947,0.007370380685,0.002579854568,-0.002086130902,0,0,0,0,0,0,0,0,0
0,0,5943449,1.349431515,0,0.009100000374,0.3730356395,-0.1802603006,9.924515724,0.01014759019,-0.001878914074,0.0005152546801,0,0,0,0,0,0,0,0,0
0,0,5953399,1.35398519,0,0.009100000374,0.4547360539,-0.1843838692,9.805329323,0.005739326123,0.001935389475,-0.001876406954,0,0,0,0,0,0,0,0,0
0,0,5963711,1.358353376,0,0.009700000286,0.4589600265,-0.2362154275,9.861577988,0.005150679965,-0.006342924666,-0.004232103936,0,0,0,0,0,0,0,0,0
0,0,5973356,1.36288166,0,0.01080000028,0.4523866475,-0.2086883634,9.905873299,0.004287974909,0.002675229218,-0.005701036658,0,0,0,0,0,0,0,0,0
0,0,5983548,1.367506623,0,0.01159999985,0.4668297172,-0.1960591525,9.877955437,0.004146364518,-0.003071360989,-0.005406903103,0,0,0,0,0,0,0,0,0
0,0,5993342,1.371820569,0,0.01219999976,0.4419166446,-0.1533912867,9.858010292,0.0009426091565,-0.0001126799616,-0.002587931929,0,0,0,0,0,0,0,0,0
0,0,6003341,1.37635231,0,0.01319999993,0.4502970278,-0.09425560385,9.907691956,0.007308487315,-0.00821476616,-0.008025847375,0,0,0,0,0,0,0,0,0
0,0,6013738,1.381103158,0,0.01329999976,0.4723741412,-0.07531668991,9.806399345,0.003962573595,-0.003950637765,-0.0005329828127,0,0,0,0,0,0,0,0,0
0,0,6023333,1.385555148,0,0.01389999967,0.4677262604,-0.03087073565,9.856163979,-0.008849186823,-0.008240397088,-0.004482315388,0,0,0,0,0,0,0,0,0
0,0,6033630,1.389863968,0,0.01470000017,0.4260728061,0.03845742717,9.88188839,-7.399630704e-05,-0.01080777775,-0.001317638787,0,0,0,0,0,0,0,0,0
0,0,6043714,1.393580317,0,0.01470000017,0.3764341474,0.01002232544,9.802000999,0.001105354168,-0.00599978026,0.00103582337,0,0,0,0,0,0,0,0,0
0,0,6053522,1.397233844,0,0.01499999966,0.3766813576,0.02128003538,9.832294464,0.00102998293,-0.004118992947,-0.004481208511,0,0,0,0,0,0,0,0,0
0,0,6063342,1.401744127,0,0.01510000043,0.453843683,0.08883297443,9.808430672,-0.01123369206,-0.01274053566,0.003138489556,0,0,0,0,0,0,0,0,0
0,0,6073448,1.40620923,0,0.01559999958,0.4443067908,0.05138226226,9.850176811,-0.007898978889,-0.01059765276,-0.0002584152971,0,0,0,0,0,0,0,0,0
0,0,6083387,1.410206914,0,0.01569999941,0.4034051895,0.01293156482,9.806857109,-0.01171170734,-0.0123550985,-0.002047157148,0,0,0,0,0,0,0,0,0
0,0,6093352,1.414297819,0,0.01559999958,0.4126512706,0.03063825518,9.791008949,-0.01427285932,-0.008925030008,0.008167738095,0,0,0,0,0,0,0,0,0
0,0,6103490,1.4182024,0,0.01579999924,0.3912571967,-0.006757642608,9.822886467,-0.01014211308,-0.01457319688,0.0005275185104,0,0,0,0,0,0,0,0,0
0,0,6113328,1.422215462,0,0.01499999966,0.3975837827,0.01631988212,9.721422195,-0.01070901379,-0.005456015468,0.002346724272,0,0,0,0,0,0,0,0,0
0,0,6123330,1.426480651,0,0.01429999992,0.4245576262,-0.06194329262,9.729690552,-0.01336518768,-0.01646480151,0.006889780052,0,0,0,0,0,0,0,0,0
0,0,6133488,1.430605531,0,0.01439999975,0.4165401757,-0.06205241755,9.801040649,-0.02401748858,-0.01364442799,0.002093694638,0,0,0,0,0,0,0,0,0
0,0,6143782,1.434715748,0,0.01389999967,0.4150184393,-0.08693177253,9.752811432,-0.01962644421,-0.01243002806,0.00187242555,0,0,0,0,0,0,0,0,0
0,0,6153362,1.438733578,0,0.01360000018,0.4024684429,-0.1075058877,9.769522667,-0.01586620323,-0.01435130183,0.00497843558,0,0,0,0,0,0,0,0,0
0,0,6163686,1.443014979,0,0.01329999976,0.4296506345,-0.04987278953,9.769331932,-0.02031060308,-0.00792597048,0.0001590035536,0,0,0,0,0,0,0,0,0
0,0,6173317,1.448236704,0,0.01190000027,0.5287949443,-0.1183062345,9.661594391,-0.02458220534,-0.01671583764,0.004042315297,0,0,0,0,0,0,0,0,0
0,0,6183623,1.453114867,0,0.01090000011,0.4854847789,-0.09517049789,9.701771736,-0.02018115111,-0.01650220715,0.0003790276241,0,0,0,0,0,0,0,0,0
0,0,6193388,1.457634568,0,0.01020000037,0.4523273408,-0.09821686149,9.722495079,-0.02391224727,-0.01028494071,0.00446521258,0,0,0,0,0,0,0,0,0
0,0,6203658,1.461922288,0,0.009300000034,0.4386874139,-0.1304475218,9.710054398,-0.01852452382,-0.01166884415,0.001710968558,0,0,0,0,0,0,0,0,0
0,0,6213334,1.465886235,0,0.00810000021,0.3969147801,-0.1533802748,9.683549881,-0.02762336656,-0.006772450637,0.005229231436,0,0,0,0,0,0,0,0,0
0,0,6223403,1.470324993,0,0.007799999788,0.4394455552,-0.04442686215,9.773499489,-0.0141793713,-0.01792935096,-0.004522435833,0,0,0,0,0,0,0,0,0
0,0,6233363,1.47524929,0,0.006599999964,0.5041316152,-0.06133566052,9.6768713,-0.02334884368,-0.006941387895,-0.0005315465969,0,0,0,0,0,0,0,0,0
0,0,6243357,1.480553031,0,0.005799999926,0.5327689052,-0.09350249916,9.713894844,-0.02448678762,-0.01665332168,0.003169744741,0,0,0,0,0,0,0,0,0
0,0,6253425,1.485316396,0,0.004699999932,0.4716920257,-0.009774926119,9.691092491,-0.02566499449,-0.004829104524,-0.002439166419,0,0,0,0,0,0,0,0,0
0,0,6263325,1.489692569,0,0.00400000019,0.4453979731,-0.03235195577,9.730651855,-0.01965954155,-0.008187355474,-0.0002494498622,0,0,0,0,0,0,0,0,0
0,0,6273335,1.493998885,0,0.002899999963,0.4283559918,0.03745377064,9.694621086,-0.01558270026,-0.01430616807,0.00144443626,0,0,0,0,0,0,0,0,0
0,0,6283467,1.498762369,0,0.00139999995,0.4799169898,-0.006814335473,9.646942139,-0.02086954936,-0.004871892743,-0.005818062928,0,0,0,0,0,0,0,0,0
0,0,6293735,1.503034234,0,0.001200000057,0.4412586689,0.07168505341,9.780477524,-0.01788184606,-0.008096586913,0.001056906884,0,0,0,0,0,0,0,0,0
0,0,6303509,1.507335424,0,0.0006000000285,0.4306987226,0.1057172939,9.74344635,-0.02684142627,-0.01299089938,-0.005410535727,0,0,0,0,0,0,0,0,0
0,0,6313636,1.511651754,0,-0,0.4250637293,0.1145912185,9.734274864,-0.01574339718,-0.003623667639,-0.0042588613,0,0,0,0,0,0,0,0,0
0,0,6323417,1.515761137,0,-0.0003000000142,0.4254571795,0.1825210154,9.77063942,-0.007896802388,-0.008759277873,0.004627718125,0,0,0,0,0,0,0,0,0
0,0,6333547,1.520061612,0,-0.001000000047,0.4356020093,0.1670160294,9.734659195,-0.02192036994,-0.002965327818,-0.006712346803,0,0,0,0,0,0,0,0,0
0,0,6343401,1.524082661,0,-0.0006000000285,0.402669251,0.1700461954,9.831215858,-0.01040533464,-0.008134345524,0.003926823381,0,0,0,0,0,0,0,0,0
0,0,6353604,1.527261972,0,-0.0001999999949,0.3205370903,0.1752906889,9.840736389,-0.01156238187,-0.01210872829,-0.006170438603,0,0,0,0,0,0,0,0,0
0,0,6363465,1.530553222,0,0.0003999999899,0.3373579681,0.1483394355,9.862653732,-0.007471771911,-0.001474711695,0.001446530921,0,0,0,0,0,0,0,0,0
0,0,6373363,1.534501791,0,0.001000000047,0.3887647986,0.1604175866,9.86310482,-0.01037560962,-0.009150306694,0.004963115323,0,0,0,0,0,0,0,0,0
0,0,6383445,1.538670778,0,0.002099999925,0.4232045412,0.1622038484,9.910096169,-0.008134221658,-0.008101573214,-0.005512490403,0,0,0,0,0,0,0,0,0
0,0,6393415,1.543028712,0,0.00419999985,0.4386478961,0.1440168023,10.00237751,-0.0009571046685,-0.00735520618,0.00728638377,0,0,0,0,0,0,0,0,0
0,0,6403322,1.546809912,0,0.005799999926,0.3766292334,0.1423015893,9.968061447,-0.00540795736,-0.00636841543,-0.002247194527,0,0,0,0,0,0,0,0,0
0,0,6413308,1.550387979,0,0.007499999832,0.3651176393,0.07233917713,9.966053009,-0.001895541558,-0.009995684959,0.006832210813,0,0,0,0,0,0,0,0,0
0,0,6423328,1.55384028,0,0.009300000034,0.3454522491,0.03632259369,9.982254028,-0.005299575161,-0.01244880445,-0.0006211107248,0,0,0,0,0,0,0,0,0
0,0,6433407,1.557559371,0,0.01070000045,0.3731279671,0.08553148061,9.935889244,0.00287116156,-0.009455793537,-0.00196440937,0,0,0,0,0,0,0,0,0
0,0,6443696,1.56129086,0,0.01180000044,0.3788531423,-0.04582098126,9.915333748,-0.006241935771,-0.008213332854,0.003801499959,0,0,0,0,0,0,0,0,0
0,0,6453385,1.564492464,0,0.01489999983,0.3237685263,-0.001878327923,10.10146999,0.002858731197,-0.01000694558,0.003103031311,0,0,0,0,0,0,0,0,0
0,0,6463609,1.568274021,0,0.01740000024,0.3732024431,0.07312525064,10.05524445,-0.003310214262,-0.009018711746,0.0006734333001,0,0,0,0,0,0,0,0,0
0,0,6473484,1.571881056,0,0.01999999955,0.3662958741,-0.02120861225,10.06175613,-0.000610614894,-0.009006816894,0.002685161307,0,0,0,0,0,0,0,0,0
0,0,6483510,1.575395703,0,0.02280000038,0.3577660918,0.03117516451,10.07394028,0.002579724882,-0.01752909087,0.005192731507,0,0,0,0,0,0,0,0,0
0,0,6493385,1.578394532,0,0.02520000003,0.2967613637,0.00252597942,10.03800869,0.002989947796,-0.008807887323,-0.001450736308,0,0,0,0,0,0,0,0,0
0,0,6503416,1.581202745,0,0.02630000003,0.2888769507,-0.09362160414,9.917624474,-0.01010986976,-0.02442815341,0.0004675019009,0,0,0,0,0,0,0,0,0
0,0,6513340,1.584591031,0,0.02759999968,0.3367874622,-0.0306516327,9.920959473,0.008369778283,-0.01321097463,-0.0005391153391,0,0,0,0,0,0,0,0,0
0,0,6523390,1.588259101,0,0.02710000053,0.3639152944,-0.08721899241,9.752709389,-0.004858993925,-0.01318792719,0.001847580192,0,0,0,0,0,0,0,0,0
0,0,6533467,1.591899514,0,0.02690000087,0.3728610277,0.06791977584,9.784274101,-0.0006097729201,-0.01469207089,0.0003288503212,0,0,0,0,0,0,0,0,0
0,0,6543327,1.595944285,0,0.02720000036,0.4052356184,-0.003510751529,9.824174881,0.001417407882,-0.01870482787,-0.002949523507,0,0,0,0,0,0,0,0,0
0,0,6553383,1.599878788,0,0.02820000052,0.3943582177,-0.04329001158,9.900600433,-0.001377527369,-0.01468187198,0.002410698449,0,0,0,0,0,0,0,0,0
0,0,6563432,1.602908015,0,0.02869999968,0.3102246821,-0.0369669795,9.854693413,-0.0009583167848,-0.01140864007,0.00147836213,0,0,0,0,0,0,0,0,0
0,0,6573776,1.606280684,0,0.02830000035,0.3434250653,-0.03577448055,9.75997448,0.00539336307,-0.02156553045,0.002478230512,0,0,0,0,0,0,0,0,0
0,0,6583529,1.609294295,0,0.02759999968,0.2985967398,-0.03518793732,9.722601891,-0.001205060049,-0.01354273781,-0.003392844461,0,0,0,0,0,0,0,0,0
0,0,6593656,1.61271441,0,0.0262000002,0.3455992341,-0.00238327682,9.668932915,0.004206696991,-0.0174109973,0.004018777516,0,0,0,0,0,0,0,0,0
0,0,6603334,1.616197109,0,0.02470000088,0.3520375192,-0.0001773811964,9.647220612,0.006095978431,-0.01013880968,-0.002282673027,0,0,0,0,0,0,0,0,0
0,0,6613563,1.619242311,0,0.02380000055,0.3056924045,-0.01167598646,9.710597038,0.006301880348,-0.01270728093,0.000986768282,0,0,0,0,0,0,0,0,0
0,0,6623330,1.621538281,0,0.02339999937,0.2317657024,0.008264553733,9.75579834,0.00197756011,-0.009143472649,-0.001231080852,0,0,0,0,0,0,0,0,0
0,0,6633490,1.623928308,0,0.02419999987,0.2467016876,0.03760990873,9.880652428,0.00900630746,-0.01000446919,0.003015761496,0,0,0,0,0,0,0,0,0
0,0,6643380,1.626835585,0,0.02410000004,0.2838278711,0.115547359,9.790491104,0.01926925965,-0.01230207644,0.00417038938,0,0,0,0,0,0,0,0,0
0,0,6653392,1.629820108,0,0.0231999997,0.3108186722,0.06244092807,9.710611343,0.01056769583,-0.00794088468,0.00335155963,0,0,0,0,0,0,0,0,0
0,0,6663377,1.632433653,0,0.02260000072,0.2619004548,0.1657932401,9.741768837,0.01176594011,-0.01144419331,-0.001704256516,0,0,0,0,0,0,0,0,0
0,0,6673406,1.634843707,0,0.02160000056,0.2412110567,0.1148924157,9.692075729,0.009847253561,-0.00642992463,0.002927947091,0,0,0,0,0,0,0,0,0
0,0,6683387,1.63711071,0,0.02129999921,0.2279006988,0.05451770127,9.7783041,0.007514614612,-0.005823834334,0.001817394048,0,0,0,0,0,0,0,0,0
0,0,6693341,1.639711261,0,0.02129999921,0.2562108636,0.1529768407,9.797251701,0.008820500225,-0.008799208328,-0.003645876423,0,0,0,0,0,0,0,0,0
0,0,6703394,1.643358588,0,0.02129999921,0.3604461253,0.1342646182,9.794995308,0.01067562588,-0.004415654112,0.005862347316,0,0,0,0,0,0,0,0,0
0,0,6713349,1.646750212,0,0.02129999921,0.3442191184,0.0410598442,9.802563667,0.01417455729,-0.003563915147,0.005382345989,0,0,0,0,0,0,0,0,0
0,0,6723721,1.649794698,0,0.02089999989,0.3030048907,-0.01168259047,9.762753487,-0.002424803562,-0.007022288628,-0.001733260229,0,0,0,0,0,0,0,0,0
0,0,6733391,1.652232051,0,0.02109999955,0.2436976582,0.02274367586,9.815871239,0.01033666078,-0.007615273353,0.002329046139,0,0,0,0,0,0,0,0,0
0,0,6743635,1.654632092,0,0.02009999938,0.2414170504,-0.08527400345,9.701889992,0.002350091701,-0.005532203242,2.8242197e-05,0,0,0,0,0,0,0,0,0
0,0,6753388,1.657796741,0,0.01960000023,0.3150526285,-0.08616921306,9.750349045,0.002008437179,-0.006045949645,0.002848363016,0,0,0,0,0,0,0,0,0
0,0,6763541,1.661429048,0,0.01999999955,0.3665804863,-0.1224972382,9.835582733,0.007183698006,-0.002738781506,0.001227257308,0,0,0,0,0,0,0,0,0
0,0,6773384,1.66445446,0,0.02040000074,0.3127638698,-0.08686766773,9.843128204,0.001947095967,-0.005820095073,-0.0009569788817,0,0,0,0,0,0,0,0,0
0,0,6784187,1.666837573,0,0.02129999921,0.2476586401,-0.1543881148,9.892706871,0.00304858177,-0.005471213255,-0.0004623603891,0,0,0,0,0,0,0,0,0
0,0,6793485,1.668645978,0,0.02290000021,0.1793472916,-0.09551445395,9.95484066,0.002478879178,-0.007964185439,-0.0003565198276,0,0,0,0,0,0,0,0,0
0,0,6803492,1.670767903,0,0.02439999953,0.2171145678,-0.07350245118,9.948886871,0.007814003155,-0.008009732701,0.001215911703,0,0,0,0,0,0,0,0,0
0,0,6813356,1.673482776,0,0.02549999952,0.2727405727,-0.1175252721,9.916690826,-0.00439119013,-0.0113856392,-0.009242422879,0,0,0,0,0,0,0,0,0
0,0,6823440,1.676309109,0,0.02730000019,0.2792373002,-0.01776179112,9.975578308,0.009610328823,-0.007893584669,0.005872393958,0,0,0,0,0,0,0,0,0
0,0,6833440,1.678915977,0,0.02859999985,0.2782473266,-0.08449213207,9.928946495,0.003428432392,-0.01288926508,-0.006030629855,0,0,0,0,0,0,0,0,0
0,0,6843402,1.681492448,0,0.02979999967,0.2561588287,-0.05188866705,9.925920486,0.004271743819,-0.01030323096,0.0004655525263,0,0,0,0,0,0,0,0,0
0,0,6853768,1.684069395,0,0.03139999881,0.2540227175,0.01976657473,9.952885628,0.006348483264,-0.01160427369,-0.0004112125316,0,0,0,0,0,0,0,0,0
0,0,6863393,1.686880231,0,0.03290000185,0.2933913171,-0.03723341227,9.95153141,0.003921744414,-0.01393723302,-0.002104083775,0,0,0,0,0,0,0,0,0
0,0,6873991,1.68980062,0,0.03449999914,0.2874738574,0.003183043329,9.956216812,-0.001007079496,-0.01366341952,0.003172722412,0,0,0,0,0,0,0,0,0
0,0,6883433,1.692361951,0,0.03599999845,0.2573808432,0.007337047253,9.949796677,0.002101537772,-0.0133539252,0.002736791503,0,0,0,0,0,0,0,0,0
0,0,6893589,1.694829941,0,0.03669999912,0.2559930086,0.03364868462,9.875822067,-0.001420053421,-0.02149491757,-8.935411643e-06,0,0,0,0,0,0,0,0,0
0,0,6903374,1.698125362,0,0.03680000082,0.3267501891,0.02705482952,9.811188698,0.007051223889,-0.01467160694,-0.001936049666,0,0,0,0,0,0,0,0,0
0,0,6913510,1.701810956,0,0.03649999946,0.3645925224,-0.0133471489,9.762335777,0.001317066839,-0.02310637012,-0.002695909003,0,0,0,0,0,0,0,0,0
0,0,6923359,1.705013275,0,0.0362999998,0.3393695354,0.06023741141,9.781367302,-0.006328720599,-0.01114802156,0.004345975816,0,0,0,0,0,0,0,0,0
0,0,6933402,1.70829308,0,0.03599999845,0.315672487,0.009002334438,9.773292542,0.0009662655648,-0.02085142024,0.007076527458,0,0,0,0,0,0,0,0,0
0,0,6943379,1.710870147,0,0.03539999947,0.2666401863,0.01168697048,9.742676735,-0.005212779157,-0.01360340975,0.001386746997,0,0,0,0,0,0,0,0,0
0,0,6953344,1.713978767,0,0.03519999981,0.3119691014,0.04415317997,9.778324127,-0.001514359377,-0.01781579666,-0.002636952559,0,0,0,0,0,0,0,0,0
0,0,6963335,1.717352629,0,0.03409999982,0.3433016539,0.02281036042,9.687714577,-0.003576722927,-0.01781559549,0.005936514586,0,0,0,0,0,0,0,0,0
0,0,6973450,1.720444322,0,0.03249999881,0.3028912544,-0.0268222373,9.644085884,-0.005140945781,-0.0210220255,0.008434868418,0,0,0,0,0,0,0,0,0
0,0,6983823,1.72297287,0,0.03139999881,0.2623619139,-0.08983883262,9.681599617,-0.009037408978,-0.02123729512,-0.001199765131,0,0,0,0,0,0,0,0,0
0,0,6993353,1.725408673,0,0.03009999916,0.2420562655,-0.05417988449,9.67800045,-0.008628380485,-0.01667164639,0.003510943847,0,0,0,0,0,0,0,0,0
0,0,7003726,1.728375316,0,0.02830000035,0.2945635319,-0.08285290003,9.610280037,0.001318768482,-0.01373979449,0.002954774303,0,0,0,0,0,0,0,0,0
0,0,7013330,1.731545448,0,0.02659999952,0.3264400065,-0.03253684938,9.63796711,0.0002056500962,-0.01659360901,0.0008673811099,0,0,0,0,0,0,0,0,0
0,0,7023652,1.7348876,0,0.0251000002,0.3361124694,0.004508214071,9.648105621,-0.001410380239,-0.01240926515,0.002962156432,0,0,0,0,0,0,0,0,0
0,0,7033801,1.737854719,0,0.02339999937,0.2915452719,-0.08395739645,9.630599976,-0.007759525441,-0.01093375683,9.654343012e-05,0,0,0,0,0,0,0,0,0
0,0,7043545,1.740494132,0,0.02180000022,0.2724022269,0.009385148063,9.633481979,0.004936101846,-0.01696444862,0.0008656094433,0,0,0,0,0,0,0,0,0
0,0,7053401,1.742946029,0,0.01999999955,0.2497481406,0.02527999692,9.61928463,-0.002398843179,-0.00669739116,0.001606799895,0,0,0,0,0,0,0,0,0
0,0,7063483,1.745585561,0,0.01850000024,0.2598051131,0.06693721563,9.652817726,0.005157446954,-0.01361431554,-0.001782178064,0,0,0,0,0,0,0,0,0
0,0,7073336,1.748474956,0,0.01649999991,0.29442361,0.04131206498,9.601959229,0.0003796319652,-0.01026351284,0.002718139673,0,0,0,0,0,0,0,0,0
0,0,7083448,1.751068473,0,0.01429999992,0.2573225498,0.08870391548,9.575569153,0.003991007805,0.0001846546656,0.00289612799,0,0,0,0,0,0,0,0,0
0,0,7093353,1.754020452,0,0.01209999993,0.2966536283,0.03560306504,9.584884644,-0.001820471603,-0.008990658447,-5.788264389e-05,0,0,0,0,0,0,0,0,0
0,0,7103301,1.756893635,0,0.01049999986,0.2920465767,-0.04295679927,9.642767906,0.001540476456,-0.002781795803,-0.001303857542,0,0,0,0,0,0,0,0,0
0,0,7113398,1.7601583,0,0.009700000286,0.3251562715,0.05557524413,9.716521263,0.002663033083,-0.007821540348,0.003096444299,0,0,0,0,0,0,0,0,0
0,0,7123366,1.762938261,0,0.008700000122,0.2797195017,0.006785497535,9.702738762,0.004100435413,-0.007834097371,-0.002626070054,0,0,0,0,0,0,0,0,0
0,0,7133787,1.765250206,0,0.007699999958,0.2319059223,0.02694090456,9.69504261,-0.000302856206,-0.001532500028,-0.003042732598,0,0,0,0,0,0,0,0,0
0,0,7143380,1.767452121,0,0.007699999958,0.2210618109,0.0003276839561,9.801756859,-0.0004044086672,-0.002516315086,0.003397883382,0,0,0,0,0,0,0,0,0
0,0,7153696,1.769403815,0,0.00820000004,0.1965811998,-0.03097922727,9.845052719,-0.001441612607,-0.003927750979,-0.00416786829,0,0,0,0,0,0,0,0,0
0,0,7163381,1.771824479,0,0.00820000004,0.2431052625,-0.002138400916,9.802236557,-0.00327210105,-0.001491088769,0.006323275156,0,0,0,0,0,0,0,0,0
0,0,7173602,1.774197817,0,0.009700000286,0.2400116026,-0.03884102777,9.946972847,0.0003970918478,-0.004013977945,-0.003003531136,0,0,0,0,0,0,0,0,0
0,0,7183539,1.776305795,0,0.01229999959,0.2032490969,-0.02484713867,10.06328869,0.00378051633,-0.001483866712,-0.002562701004,0,0,0,0,0,0,0,0,0
0,0,7193523,1.778086305,0,0.01499999966,0.1880522817,-0.001546926564,10.06960869,0.004225974437,-0.007410594262,-0.0005377083435,0,0,0,0,0,0,0,0,0
0,0,7203340,1.779491663,0,0.01669999957,0.1426679343,-0.01532259583,9.967113495,0.003379974747,-0.005074286368,-0.002589746844,0,0,0,0,0,0,0,0,0
0,0,7213431,1.781210542,0,0.01860000007,0.1621617079,0.0751959458,9.994570732,0.002097304212,-0.004793710075,-0.0003529253008,0,0,0,0,0,0,0,0,0
0,0,7223314,1.783491731,0,0.02180000022,0.2295884192,0.06214280427,10.11465931,0.007076598238,-0.004690322559,0.0008107614121,0,0,0,0,0,0,0,0,0
0,0,7233347,1.785960197,0,0.02439999953,0.2459226996,0.04444149509,10.05750751,0.002366551198,-0.005744101945,-0.001706203329,0,0,0,0,0,0,0,0,0
0,0,7243373,1.788335919,0,0.02690000087,0.2397440523,0.09002524614,10.05451393,0.01096793823,-0.009385011159,0.0009458838031,0,0,0,0,0,0,0,0,0
0,0,7253356,1.79041338,0,0.02940000035,0.2112229168,0.005043167621,10.04904652,0.007034363691,-0.007115441374,0.004218236543,0,0,0,0,0,0,0,0,0
0,0,7263340,1.793257356,0,0.0307,0.2905572653,0.06602685899,9.92416954,0.005527926609,-0.01052748132,-0.0002756149624,0,0,0,0,0,0,0,0,0
0,0,7273377,1.796709776,0,0.03209999949,0.3391510546,0.03341462463,9.943418503,0.007186377887,-0.01030487753,0.005557254422,0,0,0,0,0,0,0,0,0
0,0,7283754,1.799756885,0,0.03310000151,0.3093000948,0.05708044395,9.896035194,0.007287644781,-0.006490277592,-0.00748397829,0,0,0,0,0,0,0,0,0
0,0,7293500,1.803022861,0,0.0335999988,0.3285928369,0.05389563739,9.855543137,0.006509356201,-0.01338853315,0.003425618634,0,0,0,0,0,0,0,0,0
0,0,7303657,1.805710912,0,0.03429999948,0.2658225,0.04931680858,9.866116524,0.01451639459,-0.01358060353,-0.00163795182,0,0,0,0,0,0,0,0,0
0,0,7313339,1.808764338,0,0.03449999914,0.2987953424,0.1779913902,9.820840836,0.006877780892,-0.009811099619,0.003150389064,0,0,0,0,0,0,0,0,0
0,0,7323428,1.811894298,0,0.03429999948,0.3189103007,0.1231067628,9.774394989,0.01470345818,-0.01345878374,0.004834261257,0,0,0,0,0,0,0,0,0
0,0,7333452,1.815008283,0,0.0335999988,0.3099862635,0.1113913283,9.728567123,0.007247712463,-0.01000753324,-0.0002874839702,0,0,0,0,0,0,0,0,0
0,0,7343463,1.818123221,0,0.03310000151,0.3135901392,0.1012697965,9.752386093,0.0008601920563,-0.0162641909,1.709801472e-05,0,0,0,0,0,0,0,0,0
0,0,7353548,1.820907831,0,0.03200000152,0.2789378762,0.06863416731,9.6842556,0.009530732408,-0.00587283913,0.003299243283,0,0,0,0,0,0,0,0,0
0,0,7363419,1.824130654,0,0.03020000085,0.3215454817,0.07888384163,9.621612549,0.009592717513,-0.01019410137,-0.001903961529,0,0,0,0,0,0,0,0,0
0,0,7373369,1.827275276,0,0.02810000069,0.3133571446,0.07786637545,9.596499443,0.008882704191,-0.01604107209,0.005531672854,0,0,0,0,0,0,0,0,0
0,0,7383487,1.830398202,0,0.02580000088,0.3140868545,-0.009672354907,9.566297531,0.0140867373,-0.01265215408,0.00272266916,0,0,0,0,0,0,0,0,0
0,0,7393415,1.832656741,0,0.0231999997,0.2266585827,-0.06811321527,9.534398079,0.006170844659,-0.003967175726,0.009410844184,0,0,0,0,0,0,0,0,0
0,0,7403365,1.834820628,0,0.02089999989,0.212385416,-0.09981187433,9.57416153,0.01172655448,-0.01290663891,-0.0004105012049,0,0,0,0,0,0,0,0,0
0,0,7413383,1.837435365,0,0.0178999994,0.2727965117,-0.1322583258,9.498871803,0.01384585537,-0.001472044853,-0.001515745302,0,0,0,0,0,0,0,0,0
0,0,7423342,1.840992451,0,0.01510000043,0.3589689732,-0.06379678845,9.523406982,0.01535957679,-0.004469356965,0.01109131426,0,0,0,0,0,0,0,0,0
0,0,7433734,1.84456265,0,0.01180000044,0.3460529149,-0.1122921482,9.466404915,0.01423127577,-0.006744136102,-0.002977420576,0,0,0,0,0,0,0,0,0
0,0,7443389,1.846993208,0,0.008700000122,0.2496072948,-0.1161230654,9.487678528,0.01766885817,0.003803877393,-0.008329884149,0,0,0,0,0,0,0,0,0
0,0,7453625,1.849643588,0,0.0055999998,0.2666425705,-0.09928968549,9.493045807,0.007831621915,0.002283830428,0.009290894493,0,0,0,0,0,0,0,0,0
0,0,7463346,1.852234483,0,0.003400000045,0.2650552094,-0.04070627317,9.572226524,0.02131887153,0.006062723696,-0.007390370127,0,0,0,0,0,0,0,0,0
0,0,7473556,1.855714679,0,0.001200000057,0.3467897475,-0.0658910647,9.582107544,0.0190963205,-0.001414673869,0.001576117123,0,0,0,0,0,0,0,0,0
0,0,7483398,1.859273553,0,-0.001200000057,0.3542340398,-0.06159031019,9.554316521,0.01828830503,0.01036364213,0.001803923165,0,0,0,0,0,0,0,0,0
0,0,7493658,1.862645745,0,-0.00270000007,0.3380012512,-0.03423731774,9.654613495,0.01634394191,0.005301309284,-0.003826468717,0,0,0,0,0,0,0,0,0
0,0,7503406,1.865642667,0,-0.00400000019,0.2986083329,-0.06034262106,9.663888931,0.008986960165,0.002865199931,-0.005572788883,0,0,0,0,0,0,0,0,0
0,0,7513781,1.868622541,0,-0.00540000014,0.3001930416,-0.126668945,9.665914536,0.01681626588,0.007676771842,-0.004675858188,0,0,0,0,0,0,0,0,0
0,0,7523662,1.872182131,0,-0.006099999882,0.357804209,-0.06327925622,9.725083351,0.008184151724,0.005762312096,0.003571891924,0,0,0,0,0,0,0,0,0
0,0,7533421,1.875898361,0,-0.006500000134,0.3657633662,-0.04748194292,9.761202812,0.005860120058,-0.001111319172,-0.00212681992,0,0,0,0,0,0,0,0,0
0,0,7543389,1.878692865,0,-0.006500000134,0.283249706,-0.1074467152,9.797780037,0.01132931467,0.01183238346,-0.001195459394,0,0,0,0,0,0,0,0,0
0,0,7553336,1.881363034,0,-0.006200000178,0.2645984888,-0.09601251036,9.829878807,0.007343567908,0.005673132837,-0.0061041601,0,0,0,0,0,0,0,0,0
0,0,7563399,1.883939743,0,-0.005700000096,0.2588808537,-0.04966458678,9.847000122,0.008661173284,0.008958607912,-0.002084493171,0,0,0,0,0,0,0,0,0
0,0,7573396,1.886688352,0,-0.003700000001,0.2774859667,-0.02980483882,9.998427391,0.002562908921,0.001954663312,-0.004048306961,0,0,0,0,0,0,0,0,0
0,0,7583684,1.889405727,0,-0.002099999925,0.273325026,0.01206760481,9.966623306,0.008755366318,0.004679581616,-0.002734587993,0,0,0,0,0,0,0,0,0
0,0,7593450,1.89209199,0,0.0001999999949,0.2715719342,0.05119408667,10.02336025,0.009544675238,0.006741359364,-0.00283392705,0,0,0,0,0,0,0,0,0
0,0,7603593,1.89473176,0,0.002099999925,0.2644745708,0.06849613041,9.990618706,0.006944785826,0.001059986418,0.0004964672262,0,0,0,0,0,0,0,0,0
0,0,7613420,1.897294044,0,0.003599999938,0.250885874,0.1258626282,9.949061394,0.003977995366,-0.002876797924,-0.0002385044791,0,0,0,0,0,0,0,0,0
0,0,7623502,1.89981091,0,0.005900000222,0.2545689642,0.1444602758,10.02756405,0.007083742879,0.003392411163,-0.004033587873,0,0,0,0,0,0,0,0,0
0,0,7633424,1.902796626,0,0.007300000172,0.301184833,0.1318705827,9.940686226,0.004471283406,0.002007372444,-0.0009843693115,0,0,0,0,0,0,0,0,0
0,0,7643410,1.905797243,0,0.008600000292,0.303509891,0.07157684118,9.92916584,0.00206018053,-0.001310425345,0.004428616259,0,0,0,0,0,0,0,0,0
0,0,7653397,1.909327865,0,0.0083999997,0.3457530737,0.03456869721,9.786683083,0.002382751321,0.0007940968499,-0.004128087778,0,0,0,0,0,0,0,0,0
0,0,7663340,1.913218141,0,0.007899999619,0.3943594992,0.0504956767,9.748329163,0.003415065585,0.004600512795,0.007213432342,0,0,0,0,0,0,0,0,0
0,0,7673425,1.916965604,0,0.007000000216,0.3769253492,-0.03500291705,9.706533432,-0.0004647784808,-0.002430757508,0.000580601918,0,0,0,0,0,0,0,0,0
0,0,7683557,1.92065084,0,0.005900000222,0.3647405505,-0.008545882069,9.692222595,-0.001170676667,0.001591795357,0.003259847173,0,0,0,0,0,0,0,0,0
0,0,7693408,1.923989058,0,0.005200000014,0.3383820355,-0.1205247715,9.723157883,-0.004223186988,0.001486973255,-0.0003352653875,0,0,0,0,0,0,0,0,0
0,0,7703404,1.927390695,0,0.003199999919,0.3487016261,-0.1452655494,9.600808144,-0.004745415412,0.005041942,0.000533716986,0,0,0,0,0,0,0,0,0
0,0,7713466,1.931153297,0,0.001300000004,0.3715220392,-0.07565207779,9.617361069,-0.00933772698,-0.00491464138,0.0002947197645,0,0,0,0,0,0,0,0,0
0,0,7723384,1.935258627,0,-0.000699999975,0.4093185365,-0.2027057856,9.590013504,-0.006498294882,0.002808205783,-0.00201093033,0,0,0,0,0,0,0,0,0
0,0,7733652,1.938944459,0,-0.003899999894,0.3751802444,-0.2053987682,9.485862732,-0.00638935389,0.005299024284,0.002344419248,0,0,0,0,0,0,0,0,0
0,0,7743351,1.942491055,0,-0.006699999794,0.3606414497,-0.140039891,9.521101952,-0.006458886433,0.001627866179,0.001277630567,0,0,0,0,0,0,0,0,0
0,0,7753552,1.946273804,0,-0.008899999782,0.3758660257,-0.1844718009,9.578570366,-0.00801299233,0.003054207889,0.004208273254,0,0,0,0,0,0,0,0,0
0,0,7763383,1.949915528,0,-0.01059999969,0.3627716005,-0.1097740158,9.632494926,-0.007407375611,0.004852914717,-0.00760639878,0,0,0,0,0,0,0,0,0
0,0,7773456,1.954135895,0,-0.01260000002,0.4213062525,-0.1078761369,9.601507187,-0.00586174475,-0.001028103754,0.002093096264,0,0,0,0,0,0,0,0,0
0,0,7784222,1.958093047,0,-0.01530000009,0.4005468786,-0.1634854525,9.524265289,-0.01096453145,0.007143145893,-0.001610814244,0,0,0,0,0,0,0,0,0
0,0,7793416,1.961925864,0,-0.01820000075,0.3846179843,-0.1282629073,9.513381958,-0.008174470626,0.005585994106,-0.00392484339,0,0,0,0,0,0,0,0,0
0,0,7803482,1.965807676,0,-0.02129999921,0.3874188364,-0.1658066362,9.4902668,-0.001887992141,0.006390404422,-0.002074057469,0,0,0,0,0,0,0,0,0
0,0,7813350,1.969949365,0,-0.02370000072,0.4115003645,-0.05646448955,9.554474831,-0.01643639989,0.008129107766,-0.001845652587,0,0,0,0,0,0,0,0,0
0,0,7823332,1.973728299,0,-0.02610000037,0.3830247819,0.01479140762,9.565887451,-0.005587269086,0.001811468974,-0.003168533323,0,0,0,0,0,0,0,0,0
0,0,7833478,1.976763606,0,-0.02810000069,0.3041639924,-0.08627258986,9.599880219,-0.004340171814,0.0129736932,-0.004757330753,0,0,0,0,0,0,0,0,0
0,0,7843802,1.980105758,0,-0.02969999984,0.3332840502,-0.002674930962,9.642269135,-0.01251588576,0.003603566671,0.004124840721,0,0,0,0,0,0,0,0,0
0,0,7853664,1.983962297,0,-0.03229999915,0.3869079053,0.02475886978,9.541675568,-0.01028097887,0.009761241265,-0.009738820605,0,0,0,0,0,0,0,0,0
0,0,7863708,1.987974167,0,-0.03460000083,0.408659488,0.02541256323,9.566781044,-0.01628300175,0.01011034101,-0.0003003114252,0,0,0,0,0,0,0,0,0
0,0,7873345,1.991986156,0,-0.0364000015,0.3956303895,0.0240188539,9.618858337,-0.02273532376,0.01201035175,-0.00429150695,0,0,0,0,0,0,0,0,0
0,0,7883611,1.995546579,0,-0.03770000115,0.3665535152,0.01406120788,9.673470497,-0.01942763664,0.007467134856,0.0003735377977,0,0,0,0,0,0,0,0,0
0,0,7893469,1.998733401,0,-0.03920000046,0.3157309592,-0.01255527884,9.649905205,-0.02058171295,0.01072007418,-0.005213913042,0,0,0,0,0,0,0,0,0
0,0,7903523,2.00237155,0,-0.03999999911,0.3579502404,0.007337233983,9.711662292,-0.02234764397,0.01101174578,0.001677456195,0,0,0,0,0,0,0,0,0
0,0,7913421,2.006402254,0,-0.04080000147,0.411255002,-0.01540745981,9.719583511,-0.02427013218,0.01501023583,-0.006488389336,0,0,0,0,0,0,0,0,0
0,0,7923443,2.010540009,0,-0.0410999991,0.4078903496,0.01358313207,9.776411057,-0.02721964754,0.01031570043,0.001479584025,0,0,0,0,0,0,0,0,0
0,0,7933408,2.013678789,0,-0.04069999978,0.3204948604,0.008495404385,9.839351654,-0.02431824431,0.008828884922,0.0003265628766,0,0,0,0,0,0,0,0,0
0,0,7943359,2.016724825,0,-0.04069999978,0.305791229,-0.004073142074,9.802762032,-0.02580390684,0.009512724355,-0.004529227037,0,0,0,0,0,0,0,0,0
0,0,7953335,2.019941092,0,-0.04050000012,0.3227367699,0.01031994168,9.812052727,-0.03173267841,0.01452383585,0.001132488484,0,0,0,0,0,0,0,0,0
0,0,7963413,2.023420095,0,-0.03889999911,0.3474597037,0.06479442865,9.960689545,-0.0243190974,0.01051248983,-0.001198164769,0,0,0,0,0,0,0,0,0
0,0,7973309,2.026307106,0,-0.03669999912,0.2921259403,0.04003365338,10.02144718,-0.02522254735,0.01158584096,0.005463501904,0,0,0,0,0,0,0,0,0
0,0,7983513,2.028960943,0,-0.03510000184,0.2696464658,0.02093469538,9.962037086,-0.01833446324,0.01374471746,-0.00351914647,0,0,0,0,0,0,0,0,0
0,0,7993764,2.031944036,0,-0.03350000083,0.2921551466,-0.002767689992,9.958508492,-0.01881095581,0.005739275366,-0.001553944196,0,0,0,0,0,0,0,0,0
0,0,8003386,2.035034657,0,-0.03079999983,0.3131781816,0.02903784811,10.07560253,-0.02145585418,0.01362673007,0.00220245868,0,0,0,0,0,0,0,0,0
0,0,8013670,2.038095474,0,-0.02850000001,0.3021427691,0.002563711954,10.03001785,-0.01604581438,0.008333670907,-0.0008345007664,0,0,0,0,0,0,0,0,0
0,0,8023545,2.04076767,0,-0.02669999935,0.2701172829,-0.02836592123,9.980155945,-0.01371369604,0.01109574083,0.002574372338,0,0,0,0,0,0,0,0,0
0,0,8033566,2.043514252,0,-0.0242999997,0.2846578062,0.0424422957,10.03327751,-0.02078650519,0.005993173923,-0.002518928843,0,0,0,0,0,0,0,0,0
0,0,8043400,2.046838284,0,-0.02129999921,0.325268209,0.05375833064,10.1004591,-0.01213701721,0.009061048739,0.005279355682,0,0,0,0,0,0,0,0,0
0,0,8053485,2.049913883,0,-0.01930000074,0.3098528385,0.01574210078,10.00439644,-0.01359908283,0.009190049954,0.0001900811767,0,0,0,0,0,0,0,0,0
0,0,8063321,2.053252935,0,-0.01689999923,0.3398362398,0.05638624355,10.04359722,-0.006369992159,0.0006005266332,-0.008048793301,0,0,0,0,0,0,0,0,0
0,0,8073405,2.056547642,0,-0.01539999992,0.323748529,0.02797938697,9.949771881,-0.01919155009,0.008120893501,0.001440445776,0,0,0,0,0,0,0,0,0
0,0,8083398,2.059793949,0,-0.01470000017,0.3323120773,0.04219746217,9.869669914,-0.01108885836,0.002606218215,-0.001420792192,0,0,0,0,0,0,0,0,0
0,0,8093339,2.063462496,0,-0.01329999976,0.3655102551,0.04142078757,9.938117027,-0.01547748223,0.00113151432,0.0004613338679,0,0,0,0,0,0,0,0,0
0,0,8103425,2.067131042,0,-0.01260000002,0.3727551997,0.03550232202,9.868869781,-0.01706597954,0.00446649082,-0.000939423684,0,0,0,0,0,0,0,0,0
0,0,8113399,2.070490837,0,-0.01130000036,0.3318617344,-0.05362343788,9.924612045,-0.01466676965,0.001308793202,-0.001080240589,0,0,0,0,0,0,0,0,0
0,0,8123809,2.073132515,0,-0.01020000037,0.2708674669,-0.05232297629,9.910342216,-0.01573027112,0.003173210425,1.83367365e-06,0,0,0,0,0,0,0,0,0
0,0,8133422,2.07616353,0,-0.009399999864,0.2972384691,-0.03085481375,9.888546944,-0.01997665502,0.001050491817,-0.002725543687,0,0,0,0,0,0,0,0,0
0,0,8143719,2.079098701,0,-0.007400000002,0.2959515452,0.02096898668,9.996109009,-0.02034695819,-0.00570396008,0.002221669303,0,0,0,0,0,0,0,0,0
0,0,8153346,2.08181572,0,-0.005900000222,0.2720907927,0.01155686658,9.946739197,-0.01750782318,-0.004367815331,-0.001233367831,0,0,0,0,0,0,0,0,0
0,0,8163640,2.084271908,0,-0.00419999985,0.2505418062,-0.09718185663,9.97677803,-0.02070077509,-0.005722479895,-0.006579696201,0,0,0,0,0,0,0,0,0
0,0,8173385,2.086414337,0,-0.002199999988,0.2118149102,-0.05806989968,9.992131233,-0.01621790789,-0.005748147145,-0.001226039836,0,0,0,0,0,0,0,0,0
0,0,8183558,2.088287354,0,-0,0.1906265318,0.02725212462,10.02107143,-0.01670407504,-0.01217517909,-0.003757217899,0,0,0,0,0,0,0,0,0
0,0,8193356,2.090109587,0,0.002400000114,0.1769089997,0.105181396,10.04190922,-0.0146641545,-0.002543347655,0.0009679097566,0,0,0,0,0,0,0,0,0
0,0,8203440,2.091809511,0,0.003400000045,0.17510584,0.05433423817,9.905413628,-0.01864712127,-0.007662284188,-0.00104921998,0,0,0,0,0,0,0,0,0
0,0,8213376,2.093697548,0,0.004900000058,0.1875604391,0.03357316926,9.944159508,-0.02060830779,-0.008017948829,0.001865219208,0,0,0,0,0,0,0,0,0
0,0,8223396,2.096085548,0,0.005299999844,0.2439289987,0.04020292684,9.84295845,-0.01530478522,-0.009312482551,0.002357140882,0,0,0,0,0,0,0,0,0
0,0,8233376,2.09889555,0,0.005700000096,0.2760497332,0.04012304172,9.834563255,-0.009108794853,-0.002835803898,-0.00582659198,0,0,0,0,0,0,0,0,0
0,0,8243381,2.101657867,0,0.004999999888,0.280944258,0.04457010329,9.736131668,-0.01601605304,-0.01276711468,0.003600867465,0,0,0,0,0,0,0,0,0
0,0,8253330,2.103466511,0,0.004699999932,0.1832407266,0.09965073317,9.763710976,-0.01460300479,-0.003196618287,0.002554757521,0,0,0,0,0,0,0,0,0
0,0,8263411,2.105199337,0,0.00400000019,0.1706586033,0.02492121607,9.733128548,-0.01467452478,-0.005282811821,-0.000611568219,0,0,0,0,0,0,0,0,0
0,0,8273337,2.106791735,0,0.002600000007,0.168471694,0.02651477046,9.664808273,-0.01801032946,-0.002958111698,1.379172409e-05,0,0,0,0,0,0,0,0,0
0,0,8283535,2.108898878,0,0.001700000023,0.2065152824,0.04279171675,9.709057808,-0.01786035858,-0.0003538405872,0.01019706391,0,0,0,0,0,0,0,0,0
0,0,8293692,2.110960484,0,0.0005000000237,0.2125324756,-0.004985958338,9.671146393,-0.01535831578,0.002345292596,-0.004082404543,0,0,0,0,0,0,0,0,0
0,0,8303391,2.113226891,0,-0.0003999999899,0.2282498926,-0.07756178081,9.714607239,-0.01812336966,-0.0002153007372,0.003949762322,0,0,0,0,0,0,0,0,0
0,0,8313597,2.115602016,0,-0.001799999969,0.2337920964,-0.03773864731,9.663597107,-0.01657440141,0.009450330399,0.003844978521,0,0,0,0,0,0,0,0,0
0,0,8323429,2.118383646,0,-0.003000000026,0.2790844738,-0.05774017796,9.672792435,-0.01796002686,0.005940422416,-0.005916765425,0,0,0,0,0,0,0,0,0
0,0,8333581,2.121040106,0,-0.004499999806,0.2694534957,-0.04660746828,9.656821251,-0.01779168285,0.01056538057,0.004355132114,0,0,0,0,0,0,0,0,0
0,0,8343401,2.123417854,0,-0.0055999998,0.2418616414,-0.1019040644,9.688611031,-0.01959319972,0.006248120219,-0.0004259768175,0,0,0,0,0,0,0,0,0
0,0,8353401,2.125467062,0,-0.005900000222,0.2001917213,-0.08214983344,9.764917374,-0.01336632948,0.01403370686,-0.004078431986,0,0,0,0,0,0,0,0,0
0,0,8363372,2.128093958,0,-0.007699999958,0.2681625783,-0.06761012971,9.622493744,-0.01243443787,0.01577778719,-0.0006735012867,0,0,0,0,0,0,0,0,0
0,0,8373331,2.131239176,0,-0.008700000122,0.3160794079,-0.1209305525,9.69636631,-0.01747622155,0.01184555143,-0.0009642147925,0,0,0,0,0,0,0,0,0
0,0,8383931,2.13462925,0,-0.009800000116,0.3347532153,-0.02441711165,9.694687843,-0.009052353911,0.01770632714,-0.003738964675,0,0,0,0,0,0,0,0,0
0,0,8393332,2.137564421,0,-0.01020000037,0.2962870896,0.01493959595,9.756422997,-0.007086948492,0.01165983733,-0.001173311728,0,0,0,0,0,0,0,0,0
0,0,8403335,2.139940262,0,-0.01140000019,0.2417474389,-0.03671301529,9.688080788,-0.009459286928,0.01899773814,-0.003399054985,0,0,0,0,0,0,0,0,0
0,0,8413405,2.142872095,0,-0.01180000044,0.2919618189,0.0775430575,9.753284454,-0.008223266341,0.01089488436,-0.00237980485,0,0,0,0,0,0,0,0,0
0,0,8423750,2.1456635,0,-0.0120000001,0.2872387171,0.08985081315,9.778741837,-0.003666145727,0.02106740326,-0.003030335065,0,0,0,0,0,0,0,0,0
0,0,8433391,2.148284674,0,-0.01300000027,0.2640884817,0.05518805981,9.705684662,-0.00911683403,0.01302701514,-0.005155734718,0,0,0,0,0,0,0,0,0
0,0,8443648,2.150715113,0,-0.01250000019,0.2370057404,0.1415162832,9.845029831,-0.002565148287,0.01023669913,0.0009617705364,0,0,0,0,0,0,0,0,0
0,0,8453342,2.153068542,0,-0.01229999959,0.2426214218,0.1393346786,9.821591377,-0.008733185939,0.01392377354,-0.00467192661,0,0,0,0,0,0,0,0,0
0,0,8463550,2.155219793,0,-0.01180000044,0.2137678564,0.1510689259,9.852542877,-0.005879596807,0.01631624997,-0.001994920429,0,0,0,0,0,0,0,0,0
0,0,8473335,2.157746553,0,-0.01080000028,0.2567738295,0.162875846,9.906453133,-0.006286665797,0.008685880341,-0.001406205934,0,0,0,0,0,0,0,0,0
0,0,8483461,2.160228014,0,-0.009499999695,0.2483957857,0.1211284846,9.926541328,-0.01039802842,0.01076843217,0.002635996789,0,0,0,0,0,0,0,0,0
0,0,8493396,2.162288904,0,-0.00820000004,0.2087842375,0.06575026363,9.927026749,-0.005511929281,0.009281375445,0.001809449517,0,0,0,0,0,0,0,0,0
0,0,8503700,2.164412498,0,-0.006699999794,0.2089360356,0.06083507463,9.951325417,-0.007054273505,0.005658141337,-0.003202789463,0,0,0,0,0,0,0,0,0
0,0,8513834,2.16672349,0,-0.004499999806,0.2370708436,0.09294003248,10.02250004,-0.002015826758,0.004766480532,-0.005882703699,0,0,0,0,0,0,0,0,0
0,0,8523406,2.168894529,0,-0.003599999938,0.2114781588,0.09148877114,9.896150589,-0.004985457286,0.01154386066,0.001074053464,0,0,0,0,0,0,0,0,0
0,0,8533471,2.170440912,0,-0.001700000023,0.1588372588,0.05442132056,9.984861374,-0.01134869084,0.004213368054,0.0003335393267,0,0,0,0,0,0,0,0,0
0,0,8543399,2.172377348,0,0.0003000000142,0.1976376027,0.007342725992,10.00143337,-0.007617300842,0.00467463769,-0.001729447162,0,0,0,0,0,0,0,0,0
0,0,8553794,2.174594641,0,0.001700000023,0.2150384933,-0.1104620695,9.941638947,-0.00947355479,0.001534990384,0.001566131017,0,0,0,0,0,0,0,0,0
0,0,8563336,2.176749945,0,0.003599999938,0.2212665379,0.02271822281,9.98675251,-0.01028527785,-0.0003895405098,-0.003640484065,0,0,0,0,0,0,0,0,0
0,0,8573711,2.178608418,0,0.004999999888,0.191417262,0.007447429001,9.942938805,-0.009868329391,0.006687970366,0.002863360569,0,0,0,0,0,0,0,0,0
0,0,8583554,2.18090415,0,0.006000000052,0.2321439534,-0.04739220813,9.899196625,-0.002351273783,-0.004015155137,0.002109630965,0,0,0,0,0,0,0,0,0
0,0,8593612,2.183559179,0,0.006300000008,0.2647461891,-0.04820789397,9.83083725,-0.00993059203,0.00319352583,-0.00498486124,0,0,0,0,0,0,0,0,0
0,0,8603416,2.186011553,0,0.007199999876,0.2499257475,-0.09783286601,9.889733315,-0.007314233575,-0.002416324103,-0.003424640512,0,0,0,0,0,0,0,0,0
0,0,8613533,2.188183069,0,0.007699999958,0.2163243145,-0.0871258229,9.849197388,-0.005417013541,0.004494464956,-0.001702071866,0,0,0,0,0,0,0,0,0
0,0,8623392,2.189635754,0,0.008700000122,0.1510915756,-0.04342240468,9.907352448,-0.01276469044,-0.0003299546079,-0.003559482051,0,0,0,0,0,0,0,0,0
0,0,8633435,2.191275835,0,0.00810000021,0.1588786542,0.00319911819,9.733971596,-0.003974158317,-0.0009892780799,-0.00100438681,0,0,0,0,0,0,0,0,0
0,0,8643359,2.193446875,0,0.007600000128,0.2215382159,-0.03516058996,9.750674248,-0.006467917003,0.004252021667,-0.001934466534,0,0,0,0,0,0,0,0,0
0,0,8653388,2.196367264,0,0.007199999876,0.2894562781,0.01157747861,9.762765884,-0.01033841725,-0.0007107527344,-0.004501916934,0,0,0,0,0,0,0,0,0
0,0,8663607,2.199194431,0,0.006099999882,0.2840748131,-0.01313663088,9.694824219,-0.002957199235,0.00827667024,-0.004305787385,0,0,0,0,0,0,0,0,0
0,0,8673316,2.201459169,0,0.004399999976,0.2261844575,-0.01272389293,9.624156952,-0.005998020992,0.003250065027,-0.007069563027,0,0,0,0,0,0,0,0,0
0,0,8683394,2.203583241,0,0.002400000114,0.2157727182,-0.009271291085,9.601626396,-0.008758594282,0.004450512584,-0.002179302042,0,0,0,0,0,0,0,0,0
0,0,8693350,2.2059412,0,0.000699999975,0.2382901013,0.01717867516,9.633006096,-0.005114943255,0.009436940774,-0.006521610543,0,0,0,0,0,0,0,0,0
0,0,8703770,2.20879817,0,-0.002199999988,0.2873615623,0.06817470491,9.505478859,-0.008120508865,0.00576487137,-0.008094552904,0,0,0,0,0,0,0,0,0
0,0,8713343,2.210734606,0,-0.003299999982,0.1941564083,0.02178058587,9.693202972,-0.003757816041,0.006336870138,-0.007512934972,0,0,0,0,0,0,0,0,0
0,0,8723680,2.211936474,0,-0.004800000228,0.1255795956,0.05939149857,9.646146774,-0.009040300734,0.01350451354,-0.005679856986,0,0,0,0,0,0,0,0,0
0,0,8733378,2.213419914,0,-0.0055999998,0.1493101269,0.05215865374,9.723696709,-0.003209435381,0.008748449385,-0.008460175246,0,0,0,0,0,0,0,0,0
0,0,8743559,2.215434313,0,-0.007199999876,0.2004691809,0.02079077251,9.635533333,-0.006252307445,0.009691299871,-0.006589290686,0,0,0,0,0,0,0,0,0
0,0,8753368,2.218011141,0,-0.007199999876,0.2600835562,0.01241662912,9.808571815,-0.001560856239,0.004841978196,-0.009257995524,0,0,0,0,0,0,0,0,0
0,0,8763488,2.220837831,0,-0.007100000046,0.2761976719,0.1805556417,9.806426048,-0.005223266315,0.01105463039,-0.004109018948,0,0,0,0,0,0,0,0,0
0,0,8773330,2.222963333,0,-0.007400000002,0.2200561315,0.1814693511,9.770850182,-0.001092033694,0.01466350071,-0.01041242667,0,0,0,0,0,0,0,0,0
0,0,8784139,2.225010633,0,-0.005900000222,0.2076416463,0.1163356453,9.95151329,0.005511436611,-0.0003634694731,-0.002789705293,0,0,0,0,0,0,0,0,0
0,0,8793317,2.226793766,0,-0.004800000228,0.1815196574,0.1238268167,9.909296036,0.00569633022,0.009081346914,-0.007927442901,0,0,0,0,0,0,0,0,0
0,0,8803354,2.229091644,0,-0.003199999919,0.2293358892,0.08524373919,9.956972122,0.004256662913,0.008306906559,-0.004595674109,0,0,0,0,0,0,0,0,0
0,0,8813563,2.232028008,0,-0.001900000032,0.2879468799,0.01558280177,9.935413361,0.006133630872,0.005270779599,-0.00574631663,0,0,0,0,0,0,0,0,0
0,0,8823529,2.235265493,0,-0.0006000000285,0.3337164819,0.15823856,9.926907539,0.00520938728,0.005199918058,-0.00379493623,0,0,0,0,0,0,0,0,0
0,0,8833819,2.238566399,0,0.001099999994,0.3203648925,0.1468752623,9.968564034,0.01437909342,0.00572757842,-0.007636067457,0,0,0,0,0,0,0,0,0
0,0,8843468,2.241362572,0,0.00270000007,0.2855322957,0.02362831682,9.967522621,0.008784651756,0.001236231416,-0.009290330112,0,0,0,0,0,0,0,0,0
0,0,8853735,2.24442935,0,0.004399999976,0.3063138127,0.1276321113,9.97116375,0.005651122425,0.005374273751,-0.003321354976,0,0,0,0,0,0,0,0,0
0,0,8863450,2.247617722,0,0.005100000184,0.3191600442,0.04759064317,9.86537075,0.01257491298,-0.0002925328445,-0.001913579646,0,0,0,0,0,0,0,0,0
0,0,8873645,2.251119852,0,0.005200000014,0.3520386219,0.07306809723,9.81639576,0.01176423114,-0.0001049041166,-0.00216576783,0,0,0,0,0,0,0,0,0
0,0,8883340,2.253932476,0,0.006399999838,0.2878021896,0.02961439453,9.915647507,0.01000787038,-0.002943607513,-0.00817050878,0,0,0,0,0,0,0,0,0
0,0,8893531,2.256947994,0,0.006699999794,0.296510905,0.01961732097,9.834860802,0.005565306172,-0.001215694123,-0.009066297673,0,0,0,0,0,0,0,0,0
0,0,8903369,2.260182142,0,0.006300000008,0.3298303187,0.03501190245,9.758823395,-0.0003380610142,0.006881024688,0.0007302162121,0,0,0,0,0,0,0,0,0
0,0,8913976,2.263615608,0,0.006200000178,0.3427140415,-0.05010480434,9.792078972,0.007451921236,-0.007062777411,-0.006637359969,0,0,0,0,0,0,0,0,0
0,0,8923377,2.266846418,0,0.007499999832,0.3215097189,-0.03984022886,9.925701141,0.005130076315,0.001692833495,-0.007356094662,0,0,0,0,0,0,0,0,0
0,0,8933415,2.269404411,0,0.007600000128,0.2662252188,-0.06273645908,9.813398361,-0.001918775844,-0.005247253459,-0.01040830556,0,0,0,0,0,0,0,0,0
0,0,8943416,2.272335052,0,0.007699999958,0.2915732265,-0.1097471714,9.805197716,0.002664790722,0.0002570553333,-0.001890453277,0,0,0,0,0,0,0,0,0
0,0,8953394,2.275063992,0,0.009200000204,0.2684182525,-0.09745898843,9.955593109,0.004212612286,-0.00018956243,-0.002678593388,0,0,0,0,0,0,0,0,0
0,0,8963456,2.277979612,0,0.01070000045,0.2991777956,-0.130976826,9.951885223,0.003945358098,-0.0007723588496,-0.008898298256,0,0,0,0,0,0,0,0,0
0,0,8973455,2.280974388,0,0.01180000044,0.3050000966,-0.1148029417,9.908227921,0.01057845261,0.00364794652,-0.007892897353,0,0,0,0,0,0,0,0,0
0,0,8983779,2.283816576,0,0.01219999976,0.2774747312,-0.005426793825,9.836051941,0.002530883998,0.001391658909,-0.01069996785,0,0,0,0,0,0,0,0,0
0,0,8993380,2.286376238,0,0.01370000001,0.2649540007,-0.06543140113,9.957118988,0.008590091951,-0.000512034283,-0.007312047761,0,0,0,0,0,0,0,0,0
0,0,9003687,2.289296627,0,0.01420000009,0.2928901613,0.01014950313,9.84644413,0.002388006542,-0.001349816448,-0.00437889481,0,0,0,0,0,0,0,0,0
0,0,9013448,2.292185307,0,0.01460000034,0.2811553776,-0.02814607508,9.842092514,0.01201422419,-0.00183500105,-0.01298361272,0,0,0,0,0,0,0,0,0
0,0,9023575,2.295324564,0,0.01360000018,0.3258330226,0.01146614179,9.695980072,0.001477396116,0.000234172534,-0.008200766519,0,0,0,0,0,0,0,0,0
0,0,9033432,2.298573971,0,0.01229999959,0.3262439668,0.03581418842,9.669577599,0.002609196585,-0.00189516542,-0.003895361442,0,0,0,0,0,0,0,0,0
0,0,9043488,2.301448345,0,0.01109999977,0.2810684144,0.02445027791,9.684379578,0.0007469903794,0.004311112221,-0.0120792063,0,0,0,0,0,0,0,0,0
0,0,9053331,2.303819418,0,0.009899999946,0.2427636832,-0.09662280977,9.676796913,-0.006704937667,0.001895018737,-0.009179434739,0,0,0,0,0,0,0,0,0
0,0,9063407,2.306176424,0,0.00829999987,0.2369589359,-0.05814132839,9.641355515,-0.002070602961,0.00331070344,-0.007679136936,0,0,0,0,0,0,0,0,0
0,0,9073406,2.3088305,0,0.006399999838,0.2649072707,-0.04144604877,9.608390808,-0.009320386685,0.001710040029,-0.007637450472,0,0,0,0,0,0,0,0,0
0,0,9083394,2.311687469,0,0.005100000184,0.2944575846,-0.05499694124,9.678041458,-0.006814263761,-0.004814213142,-0.005248282105,0,0,0,0,0,0,0,0,0
0,0,9093336,2.314044714,0,0.00419999985,0.2298143655,-0.05913190916,9.703551292,-0.0121723488,0.009451717138,-0.008517421782,0,0,0,0,0,0,0,0,0
0,0,9103392,2.316464663,0,0.00270000007,0.2433756441,-0.06300123036,9.656389236,-0.0008862320101,0.004331795964,-0.006300122011,0,0,0,0,0,0,0,0,0
0,0,9113330,2.318978548,0,0.0005000000237,0.2562333643,-0.03447819129,9.574311256,-0.009052234702,0.004528448451,-0.004822509829,0,0,0,0,0,0,0,0,0
0,0,9123340,2.321274519,0,-0.0001999999949,0.2264953852,0.009626215324,9.732385635,0.004654507153,0.004529864527,-0.006237787195,0,0,0,0,0,0,0,0,0
0,0,9133748,2.323273659,0,-0.001500000013,0.2030001134,0.01211518608,9.671938896,-0.0127672907,0.004667267203,-0.007070749998,0,0,0,0,0,0,0,0,0
0,0,9143355,2.325007439,0,-0.003100000089,0.1771926731,0.01467350498,9.64288044,-0.001306931488,0.00658920547,-0.007130512036,0,0,0,0,0,0,0,0,0
0,0,9153489,2.327054024,0,-0.004900000058,0.2057307065,0.05615149811,9.613459587,0.002696421929,0.007181779481,-0.005901487079,0,0,0,0,0,0,0,0,0
0,0,9163332,2.329100609,0,-0.00549999997,0.2035347968,0.04012125731,9.744243622,0.001389674144,0.005155573599,-0.009031265974,0,0,0,0,0,0,0,0,0
0,0,9173558,2.33142972,0,-0.007100000046,0.236496374,0.1119055301,9.63668251,0.003192456672,0.0009620913188,-0.003369614249,0,0,0,0,0,0,0,0,0
0,0,9183518,2.333695173,0,-0.008999999613,0.2260310054,0.05594235286,9.612538338,-0.002834777348,0.01266731042,-0.00698391581,0,0,0,0,0,0,0,0,0
0,0,9193457,2.33540082,0,-0.01049999986,0.1714377999,0.1263789684,9.653263092,-0.01213119179,0.006058626343,-0.005433538463,0,0,0,0,0,0,0,0,0
0,0,9203383,2.336793661,0,-0.01059999969,0.1445521563,0.09484340996,9.787439346,-0.001460671891,0.008738989942,-0.005424020346,0,0,0,0,0,0,0,0,0
0,0,9213397,2.338465691,0,-0.01159999985,0.163280189,0.03690620139,9.703139305,-0.005954934284,0.01145092584,-0.008053990081,0,0,0,0,0,0,0,0,0
0,0,9223386,2.339778423,0,-0.01250000019,0.1386464387,0.02452904545,9.704546928,-0.006558110472,0.01481324993,0.001113786246,0,0,0,0,0,0,0,0,0
0,0,9233342,2.341059208,0,-0.01229999959,0.1278208792,0.003796005854,9.819919586,-0.009094698355,0.004342981614,-0.008836100809,0,0,0,0,0,0,0,0,0
0,0,9243436,2.342604876,0,-0.01159999985,0.1568754166,-0.01600031368,9.870230675,-0.01065213606,0.008415811695,-0.001345325494,0,0,0,0,0,0,0,0,0
0,0,9253331,2.344131947,0,-0.01040000003,0.1570840925,-0.09127197415,9.9193964,-0.01646508463,0.01385046449,-0.01046358515,0,0,0,0,0,0,0,0,0
0,0,9263337,2.345677614,0,-0.008999999613,0.1550121456,-0.01203203574,9.942609787,-0.01381056476,0.008075322956,-0.007764487527,0,0,0,0,0,0,0,0,0
0,0,9273399,2.346940517,0,-0.007400000002,0.1287457496,-0.08621007949,9.964204788,-0.01585926302,0.01208929811,-0.007467076182,0,0,0,0,0,0,0,0,0
0,0,9283711,2.348532438,0,-0.006500000134,0.1576867998,-0.03170097992,9.886989594,-0.01341913547,0.01478967723,-0.00836638175,0,0,0,0,0,0,0,0,0
0,0,9293444,2.350030422,0,-0.00400000019,0.1494670063,-0.05637404695,10.05575371,-0.01360305678,0.007027837448,-0.002986579901,0,0,0,0,0,0,0,0,0
0,0,9303599,2.351405144,0,-0.0006000000285,0.1403418481,0.01988642476,10.13502884,-0.003919161856,0.01193579938,-0.01015568618,0,0,0,0,0,0,0,0,0
0,0,9313404,2.352747917,0,0.002000000095,0.1339043528,-0.01001202594,10.06427479,-0.00306631322,0.005748373456,-0.007469947916,0,0,0,0,0,0,0,0,0
0,0,9323509,2.35368681,0,0.00419999985,0.09177332371,0.07135368139,10.01939297,-0.006829179358,0.01593068987,-0.01337879803,0,0,0,0,0,0,0,0,0
0,0,9333407,2.355360746,0,0.007100000046,0.1657692492,0.0980021432,10.08313274,-0.0005409773439,0.009486896917,-0.001650796621,0,0,0,0,0,0,0,0,0
0,0,9343413,2.357129097,0,0.00820000004,0.1813358814,0.1151005775,9.91640377,-0.002836068161,0.006396619603,-0.01149199158,0,0,0,0,0,0,0,0,0
0,0,9353378,2.359303474,0,0.008999999613,0.2204129398,0.1002461687,9.882772446,0.007956924848,0.004121165723,-0.006317035761,0,0,0,0,0,0,0,0,0
0,0,9363371,2.361462116,0,0.008600000292,0.2176634222,0.08638198674,9.756071091,0.005607238039,0.009204120375,-0.006975897588,0,0,0,0,0,0,0,0,0
0,0,9373382,2.363872051,0,0.007899999619,0.2369892001,0.1105440333,9.731326103,-0.0003016729315,0.005808725953,-0.004949454218,0,0,0,0,0,0,0,0,0
0,0,9383457,2.366171837,0,0.006300000008,0.2384057045,0.07875811309,9.637306213,-0.00243127509,0.007858457044,-0.004904177506,0,0,0,0,0,0,0,0,0
0,0,9393713,2.368559837,0,0.00400000019,0.2380364388,-0.02568408102,9.569797516,0.001848379965,0.008922769688,-0.009474021383,0,0,0,0,0,0,0,0,0
0,0,9403563,2.371072292,0,0.00159999996,0.2459985465,-0.04982833564,9.559048653,0.0002592922247,0.007750943769,-0.007529690396,0,0,0,0,0,0,0,0,0
0,0,9413343,2.373490095,0,-0.001500000013,0.2445088476,-0.05599475279,9.493042946,-0.001510074595,0.007260494865,-0.003392917803,0,0,0,0,0,0,0,0,0
0,0,9423323,2.376172781,0,-0.004800000228,0.2685587108,-0.08417762071,9.475489616,-0.001328510349,0.01535602752,-0.01137185097,0,0,0,0,0,0,0,0,0
0,0,9433660,2.378763914,0,-0.007699999958,0.2631946206,-0.03515119851,9.502078056,-0.005947240628,0.005861470941,-0.01452329103,0,0,0,0,0,0,0,0,0
0,0,9443401,2.380728483,0,-0.009300000034,0.1947781444,-0.08057358116,9.643138885,-0.006668886635,0.01133190654,-0.003675287822,0,0,0,0,0,0,0,0,0
0,0,9453561,2.382677317,0,-0.01090000011,0.1961109936,-0.1052463055,9.641292572,-0.00860719569,0.009120943956,-0.007137588691,0,0,0,0,0,0,0,0,0
0,0,9463519,2.384517908,0,-0.01240000036,0.1825800538,-0.06890224665,9.653792381,-0.009112795815,0.01275718212,-0.01385583822,0,0,0,0,0,0,0,0,0
0,0,9473479,2.386251926,0,-0.01290000044,0.1763274074,0.01861896552,9.751063347,-0.008487841114,0.007149888203,-0.003648773301,0,0,0,0,0,0,0,0,0
0,0,9483337,2.387938261,0,-0.01269999985,0.1693209708,-0.02054250427,9.818408966,-0.01420259103,0.01292578038,-0.01028130483,0,0,0,0,0,0,0,0,0
0,0,9493402,2.389842987,0,-0.01250000019,0.1881545037,-0.009054196998,9.819218636,-0.004078218713,0.007917131297,-0.01474682894,0,0,0,0,0,0,0,0,0
0,0,9503318,2.391607523,0,-0.01140000019,0.1774097234,-0.0126163559,9.911195755,-0.01113168988,0.00981319882,-0.009268829599,0,0,0,0,0,0,0,0,0
0,0,9513362,2.392625093,0,-0.009899999946,0.1078536287,0.08175719529,9.945334435,-0.00885436777,0.008359775878,-0.005751775578,0,0,0,0,0,0,0,0,0
0,0,9523391,2.393967867,0,-0.007300000172,0.1276447028,-0.008717727847,10.0629158,-0.004271141253,0.005888647866,-0.008528527804,0,0,0,0,0,0,0,0,0
0,0,9533433,2.395218372,0,-0.00549999997,0.127775982,0.03555708379,9.976340294,-0.008540521376,0.005633398425,-0.008661306463,0,0,0,0,0,0,0,0,0
0,0,9543337,2.39678216,0,-0.002899999963,0.1630011946,0.06064521894,10.06247139,-0.00828106422,0.0008435634663,-0.008106002584,0,0,0,0,0,0,0,0,0
0,0,9553383,2.39784646,0,0.0001999999949,0.1088259444,0.06082363799,10.10959053,-0.008861956187,0.01219043043,-0.006577122957,0,0,0,0,0,0,0,0,0
0,0,9563744,2.398802519,0,0.003500000108,0.09625396132,0.08672183752,10.1320467,-0.002791990526,0.003319346812,-0.006368651986,0,0,0,0,0,0,0,0,0
0,0,9573611,2.399758816,0,0.006300000008,0.09264358878,0.09255225956,10.0756216,-0.004130626563,0.001850775094,-0.0073487591,0,0,0,0,0,0,0,0,0
0,0,9583631,2.400888681,0,0.009499999695,0.113972716,0.1143917143,10.12520123,-0.003600565949,-0.001805704436,-0.007507566828,0,0,0,0,0,0,0,0,0
0,0,9593330,2.402613878,0,0.0131000001,0.1760543138,0.1385963857,10.15547276,0.005715311039,0.006654557772,-0.004007428419,0,0,0,0,0,0,0,0,0
0,0,9603556,2.404414415,0,0.01489999983,0.1827786118,0.07534915954,9.979474068,-0.009661265649,0.006103152875,0.0009068517829,0,0,0,0,0,0,0,0,0
0,0,9613342,2.406029224,0,0.01700000092,0.1546910703,0.1018975228,10.01383209,-0.002491350053,-0.0005349083804,-0.006274324376,0,0,0,0,0,0,0,0,0
0,0,9623445,2.407346964,0,0.01850000024,0.136559844,0.08931303024,9.948774338,-0.004084254615,-0.001831702073,-0.01157185528,0,0,0,0,0,0,0,0,0
0,0,9633394,2.408991337,0,0.02019999921,0.1670535207,0.0662772283,9.968791008,-0.003778421087,0.002938816557,-0.0011393819,0,0,0,0,0,0,0,0,0
0,0,9643372,2.410883665,0,0.02099999972,0.1873514354,0.03377451375,9.878727913,-0.005460606422,0.002269872231,-0.006656670477,0,0,0,0,0,0,0,0,0
